timestamp(ms),GPS.Lat,GPS.Alt,GPS.Lng,IMU.AccX,IMU.AccY,RCOU.C1,RCOU.C3,DCM.Yaw,IMU.GyrZ
3184002.771,634015047,219.26,103153037,0.03379638493061066,-0.16503271460533142,1510,1510,67.24431610107422,-0.004348893649876118
3184102.771,634015047,219.26,103153037,0.028980551287531853,-0.16251859068870544,1510,1510,67.24623107910156,-0.00439858203753829
3184202.771,634015047,219.25,103153038,0.025634899735450745,-0.16880612075328827,1510,1510,67.2354507446289,-0.004554040264338255
3184302.771,634015047,219.25,103153038,0.026200879365205765,-0.1631564050912857,1510,1510,67.21694946289062,-0.004699917044490576
3184402.771,634015047,219.25,103153038,0.02480696514248848,-0.16468462347984314,1510,1510,67.18083190917969,-0.004609360359609127
3184502.771,634015047,219.25,103153038,0.033922623842954636,-0.16813430190086365,1510,1510,67.15595245361328,-0.004365172237157822
3184602.771,634015047,219.25,103153038,0.035079337656497955,-0.17015379667282104,1510,1510,67.11203002929688,-0.004812913481146097
3184702.771,634015047,219.25,103153039,0.03810279071331024,-0.16720938682556152,1510,1510,67.08290100097656,-0.005231812596321106
3184802.771,634015047,219.25,103153039,0.028993722051382065,-0.17257288098335266,1510,1510,67.03986358642578,-0.005091022700071335
3184902.771,634015048,219.25,103153039,0.02672402188181877,-0.1677784025669098,1510,1510,66.99468231201172,-0.0045629944652318954
3185002.771,634015048,219.25,103153039,0.03084084577858448,-0.16964232921600342,1510,1510,66.93128204345703,-0.004591008182615042
3185102.771,634015048,219.25,103153040,0.018580906093120575,-0.16276605427265167,1510,1510,66.8927001953125,-0.005451522767543793
3185202.771,634015048,219.25,103153040,0.02597120963037014,-0.16061383485794067,1510,1510,66.84719848632812,-0.005448879674077034
3185302.771,634015048,219.26,103153041,0.030168235301971436,-0.16555961966514587,1510,1510,66.8158950805664,-0.005236477125436068
3185402.771,634015048,219.26,103153041,0.028086649253964424,-0.1702505648136139,1510,1510,66.79037475585938,-0.005224620457738638
3185502.771,634015049,219.25,103153041,0.038987450301647186,-0.17256826162338257,1510,1510,66.77394104003906,-0.005162655375897884
3185602.771,634015049,219.25,103153041,0.0355052687227726,-0.17086991667747498,1510,1510,66.76293182373047,-0.005487722344696522
3185702.771,634015049,219.25,103153042,0.03086673468351364,-0.1670769453048706,1510,1510,66.75186920166016,-0.0057228729128837585
3185802.771,634015049,219.25,103153042,0.025126516819000244,-0.15896855294704437,1510,1510,66.72647094726562,-0.0052896845154464245
3185902.771,634015049,219.25,103153043,0.030446892604231834,-0.16802038252353668,1510,1510,66.71810913085938,-0.004835869651287794
3186002.771,634015050,219.25,103153043,0.028040874749422073,-0.16841620206832886,1510,1510,66.68470764160156,-0.005318629089742899
3186102.771,634015050,219.25,103153043,0.025303145870566368,-0.16802272200584412,1510,1510,66.63690948486328,-0.005707832053303719
3186202.771,634015051,219.25,103153044,0.029907317832112312,-0.1670646220445633,1510,1510,66.58087921142578,-0.006210350431501865
3186302.771,634015051,219.25,103153044,0.03148949518799782,-0.16518113017082214,1510,1510,66.5088119506836,-0.006055953912436962
3186402.771,634015051,219.25,103153045,0.03267906606197357,-0.16594994068145752,1510,1510,66.47278594970703,-0.005637723486870527
3186502.771,634015051,219.25,103153045,0.03446880728006363,-0.16053713858127594,1510,1510,66.4447021484375,-0.005840421654284
3186602.771,634015051,219.25,103153045,0.03146412596106529,-0.1639176458120346,1510,1510,66.4051284790039,-0.005856255069375038
3186702.771,634015051,219.24,103153044,0.024262750521302223,-0.1643240600824356,1510,1510,66.36345672607422,-0.005933757405728102
3186802.771,634015051,219.24,103153044,0.028980616480112076,-0.16627612709999084,1510,1510,66.29920959472656,-0.005921041592955589
3186902.771,634015052,219.24,103153046,0.027886657044291496,-0.1652216762304306,1510,1510,66.25557708740234,-0.006251860409975052
3187002.771,634015052,219.24,103153047,0.02963062934577465,-0.17363351583480835,1510,1510,66.21434783935547,-0.006247580982744694
3187102.771,634015052,219.24,103153047,0.031408511102199554,-0.17135894298553467,1510,1510,66.15434265136719,-0.0062628621235489845
3187202.771,634015053,219.24,103153047,0.03496928513050079,-0.17323006689548492,1510,1510,66.10761260986328,-0.006238196976482868
3187302.771,634015053,219.24,103153047,0.029154328629374504,-0.1642550677061081,1510,1510,66.09730529785156,-0.006029240321367979
3187402.771,634015053,219.23,103153047,0.03379454091191292,-0.16746880114078522,1510,1510,66.077880859375,-0.0061173103749752045
3187502.771,634015053,219.23,103153047,0.027926623821258545,-0.16443410515785217,1510,1510,66.06703186035156,-0.006651322357356548
3187602.771,634015053,219.23,103153047,0.032557982951402664,-0.16349011659622192,1510,1510,66.04324340820312,-0.0065275439992547035
3187702.771,634015053,219.23,103153049,0.025102021172642708,-0.16472899913787842,1510,1510,65.9906997680664,-0.006385087501257658
3187802.771,634015054,219.23,103153049,0.028056932613253593,-0.17065423727035522,1510,1510,65.95367431640625,-0.006066672038286924
3187902.771,634015054,219.23,103153049,0.02818017452955246,-0.17235805094242096,1510,1510,65.92066192626953,-0.006411716341972351
3188002.771,634015054,219.23,103153049,0.039435602724552155,-0.17008504271507263,1510,1510,65.89635467529297,-0.006855098996311426
3188102.771,634015054,219.22,103153049,0.03321950137615204,-0.16230864822864532,1510,1510,65.84022521972656,-0.00645096879452467
3188202.771,634015054,219.22,103153050,0.037948302924633026,-0.1667320877313614,1510,1510,65.79273986816406,-0.006505744066089392
3188302.771,634015054,219.22,103153050,0.02871435508131981,-0.16149593889713287,1510,1510,65.73750305175781,-0.006867091171443462
3188402.771,634015055,219.22,103153050,0.02548210509121418,-0.1584778130054474,1510,1510,65.69115447998047,-0.007144880946725607
3188502.771,634015055,219.22,103153050,0.02553931251168251,-0.16369225084781647,1510,1510,65.66605377197266,-0.006824115291237831
3188602.771,634015055,219.22,103153050,0.027875272557139397,-0.17193232476711273,1510,1510,65.62074279785156,-0.006603460758924484
3188702.771,634015055,219.23,103153051,0.025163332000374794,-0.168883815407753,1510,1510,65.60143280029297,-0.007240684237331152
3188802.771,634015055,219.21,103153051,0.03593040630221367,-0.1718333661556244,1510,1510,65.55238342285156,-0.007495548576116562
3188902.771,634015055,219.21,103153051,0.03898885101079941,-0.16746339201927185,1510,1510,65.51294708251953,-0.007664000615477562
3189002.771,634015056,219.21,103153051,0.036156065762043,-0.16576339304447174,1510,1510,65.4668960571289,-0.007572095841169357
3189102.771,634015056,219.21,103153051,0.026415780186653137,-0.16106370091438293,1510,1510,65.4387435913086,-0.006988716311752796
3189202.771,634015056,219.21,103153051,0.03103054128587246,-0.1632176786661148,1510,1510,65.40370178222656,-0.007019477430731058
3189302.771,634015056,219.21,103153052,0.027500011026859283,-0.16579115390777588,1510,1510,65.356689453125,-0.006783673074096441
3189402.771,634015056,219.21,103153052,0.027342569082975388,-0.16758613288402557,1510,1510,65.3299331665039,-0.0073695373721420765
3189502.771,634015057,219.21,103153054,0.03211094066500664,-0.17502906918525696,1510,1510,65.2862777709961,-0.008228464983403683
3189602.771,634015057,219.21,103153054,0.026012185961008072,-0.1710556000471115,1510,1510,65.23893737792969,-0.008172489702701569
3189702.771,634015058,219.21,103153054,0.031505998224020004,-0.17097319662570953,1510,1510,65.16346740722656,-0.007732126861810684
3189802.771,634015058,219.21,103153054,0.03492482751607895,-0.1701633334159851,1510,1510,65.1213150024414,-0.007220749277621508
3189902.771,634015059,219.2,103153054,0.03921021148562431,-0.16930486261844635,1510,1510,65.07112121582031,-0.007363969925791025
3190002.771,634015059,219.2,103153054,0.028782539069652557,-0.16663159430027008,1510,1510,65.0261001586914,-0.007991736754775047
3190102.771,634015060,219.19,103153054,0.02709365263581276,-0.15895600616931915,1510,1510,64.99481201171875,-0.008022523485124111
3190202.771,634015060,219.19,103153054,0.027807408943772316,-0.16515189409255981,1510,1510,64.9551010131836,-0.007945496588945389
3190302.771,634015060,219.18,103153054,0.030069828033447266,-0.1668771207332611,1510,1510,64.89037322998047,-0.00769527442753315
3190402.771,634015060,219.18,103153054,0.032927144318819046,-0.1686156988143921,1510,1510,64.8394546508789,-0.00801270455121994
3190502.771,634015061,219.18,103153055,0.03743702545762062,-0.17146176099777222,1510,1510,64.78943634033203,-0.008142763748764992
3190602.771,634015061,219.18,103153055,0.030215855687856674,-0.17091578245162964,1510,1510,64.7378921508789,-0.008214346133172512
3190702.771,634015061,219.16,103153055,0.03045942448079586,-0.1671477109193802,1510,1510,64.69498443603516,-0.00796461571007967
3190802.771,634015061,219.16,103153055,0.03296878561377525,-0.1603163182735443,1510,1510,64.65096282958984,-0.007754618301987648
3190902.771,634015062,219.16,103153056,0.025500191375613213,-0.16498297452926636,1510,1510,64.619873046875,-0.008174504153430462
3191002.771,634015062,219.16,103153056,0.02829243242740631,-0.1572454273700714,1510,1510,64.56636047363281,-0.008616152219474316
3191102.771,634015062,219.15,103153056,0.024164479225873947,-0.1658044159412384,1510,1510,64.50303649902344,-0.008002577349543571
3191202.771,634015063,219.14,103153056,0.031027769669890404,-0.168581023812294,1510,1510,64.44084167480469,-0.007974285632371902
3191302.771,634015063,219.14,103153056,0.03260741010308266,-0.17240941524505615,1510,1510,64.37830352783203,-0.00848968606442213
3191402.771,634015064,219.13,103153057,0.03389636054635048,-0.165278360247612,1510,1510,64.31216430664062,-0.008938801474869251
3191502.771,634015064,219.13,103153057,0.026790885254740715,-0.16815893352031708,1510,1510,64.2458724975586,-0.008763651363551617
3191602.771,634015064,219.13,103153057,0.02731776237487793,-0.15609462559223175,1510,1510,64.19007873535156,-0.007957148365676403
3191702.771,634015064,219.12,103153057,0.029692526906728745,-0.16396041214466095,1510,1510,64.1541976928711,-0.007931957021355629
3191802.771,634015064,219.12,103153057,0.025760041549801826,-0.16503176093101501,1510,1510,64.12467956542969,-0.008681809529662132
3191902.771,634015065,219.11,103153057,0.02799312211573124,-0.15963828563690186,1510,1510,64.08625793457031,-0.008638126775622368
3192002.771,634015065,219.11,103153057,0.030370905995368958,-0.17009106278419495,1510,1510,64.0331802368164,-0.008984786458313465
3192102.771,634015065,219.1,103153057,0.032407499849796295,-0.17147445678710938,1510,1510,64.00080871582031,-0.008911380544304848
3192202.771,634015065,219.1,103153057,0.032155513763427734,-0.16779185831546783,1510,1510,63.949302673339844,-0.008848140016198158
3192302.771,634015065,219.09,103153058,0.03417741507291794,-0.16694054007530212,1510,1510,63.894935607910156,-0.009019076824188232
3192402.771,634015065,219.09,103153058,0.0256205964833498,-0.16455933451652527,1510,1510,63.84039306640625,-0.0086774667724967
3192502.771,634015066,219.08,103153058,0.029034707695245743,-0.16233757138252258,1510,1510,63.747989654541016,-0.008905382826924324
3192602.771,634015066,219.08,103153058,0.028572553768754005,-0.1677253395318985,1510,1510,63.68476104736328,-0.009658746421337128
3192702.771,634015067,219.07,103153058,0.026322757825255394,-0.16499897837638855,1510,1510,63.63268280029297,-0.009784048423171043
3192802.771,634015067,219.07,103153058,0.02395753562450409,-0.16264280676841736,1510,1510,63.582000732421875,-0.009767618030309677
3192902.771,634015067,219.07,103153058,0.025201348587870598,-0.16731137037277222,1510,1510,63.54088592529297,-0.009499259293079376
3193002.771,634015067,219.07,103153058,0.03505594655871391,-0.17353104054927826,1510,1510,63.491127014160156,-0.00925435684621334
3193102.771,634015068,219.05,103153058,0.029665302485227585,-0.1718738079071045,1510,1510,63.44380569458008,-0.009168611839413643
3193202.771,634015068,219.05,103153058,0.0346161350607872,-0.16745829582214355,1510,1510,63.37745666503906,-0.009995788335800171
3193302.771,634015068,219.05,103153058,0.027459900826215744,-0.1598910689353943,1510,1510,63.31620407104492,-0.00995347648859024
3193402.771,634015068,219.04,103153058,0.0298000555485487,-0.15778443217277527,1510,1510,63.27248001098633,-0.009905936196446419
3193502.771,634015068,219.04,103153058,0.027699831873178482,-0.1635400503873825,1510,1510,63.21965408325195,-0.009860610589385033
3193602.771,634015068,219.04,103153058,0.03499915823340416,-0.17131611704826355,1510,1510,63.18436050415039,-0.009947221726179123
3193702.771,634015069,219.04,103153059,0.032717619091272354,-0.16710084676742554,1510,1510,63.117610931396484,-0.010124028660356998
3193802.771,634015069,219.03,103153059,0.030883343890309334,-0.17638888955116272,1510,1510,63.04826354980469,-0.010232027620077133
3193902.771,634015069,219.03,103153059,0.034563157707452774,-0.16616618633270264,1510,1510,62.9803581237793,-0.010255834087729454
3194002.771,634015069,219.03,103153059,0.03286735340952873,-0.16143134236335754,1510,1510,62.910369873046875,-0.01005885936319828
3194102.771,634015069,219.03,103153059,0.031099002808332443,-0.16164878010749817,1510,1510,62.853172302246094,-0.009965931065380573
3194202.771,634015069,219.03,103153059,0.026959938928484917,-0.16290855407714844,1510,1510,62.788124084472656,-0.010226672515273094
3194302.771,634015070,219.03,103153059,0.029215337708592415,-0.16789735853672028,1510,1510,62.72767639160156,-0.01073262095451355
3194402.771,634015070,219.03,103153059,0.026717405766248703,-0.1706002801656723,1510,1510,62.67851257324219,-0.010579893365502357
3194502.771,634015070,219.03,103153059,0.03754337131977081,-0.17548227310180664,1510,1510,62.61192321777344,-0.01064999122172594
3194602.771,634015070,219.03,103153059,0.030649792402982712,-0.17314887046813965,1510,1510,62.56415557861328,-0.011040162295103073
3194702.771,634015071,219.02,103153059,0.03272457420825958,-0.16294260323047638,1510,1510,62.50318908691406,-0.010666146874427795
3194802.771,634015071,219.02,103153060,0.029521405696868896,-0.1705401986837387,1510,1510,62.42707061767578,-0.010761421173810959
3194902.771,634015071,219.02,103153060,0.03371799364686012,-0.1594749093055725,1510,1510,62.3497200012207,-0.010743727907538414
3195002.771,634015072,219.03,103153061,0.029248055070638657,-0.15472154319286346,1510,1510,62.25861740112305,-0.011110804975032806
3195102.771,634015072,219.03,103153061,0.02586646005511284,-0.16302162408828735,1510,1510,62.205467224121094,-0.011167895048856735
3195202.771,634015072,219.03,103153061,0.024110354483127594,-0.17166370153427124,1510,1510,62.14007568359375,-0.011386622674763203
3195302.771,634015072,219.03,103153061,0.02363610826432705,-0.17028945684432983,1510,1510,62.06097412109375,-0.011670364998281002
3195402.771,634015073,219.03,103153062,0.032090701162815094,-0.1713712215423584,1510,1510,61.99193572998047,-0.011889191344380379
3195502.771,634015073,219.03,103153062,0.0369187630712986,-0.17221269011497498,1510,1510,61.91023254394531,-0.011535254307091236
3195602.771,634015073,219.03,103153062,0.03184489905834198,-0.16947263479232788,1510,1510,61.839900970458984,-0.011636673472821712
3195702.771,634015073,219.04,103153062,0.029413599520921707,-0.1666439026594162,1510,1510,61.79287338256836,-0.011439010500907898
3195802.771,634015073,219.04,103153062,0.03136603161692619,-0.16617298126220703,1510,1510,61.73217010498047,-0.01166563667356968
3195902.771,634015074,219.05,103153064,0.029518116265535355,-0.1573123037815094,1510,1510,61.639225006103516,-0.01200336217880249
3196002.771,634015074,219.05,103153064,0.029605956748127937,-0.16272391378879547,1510,1510,61.545753479003906,-0.012165933847427368
3196102.771,634015075,219.05,103153065,0.03009520098567009,-0.1687191128730774,1510,1510,61.45234298706055,-0.012508511543273926
3196202.771,634015075,219.05,103153065,0.03359239920973778,-0.16147077083587646,1510,1510,61.3653450012207,-0.012484494596719742
3196302.771,634015075,219.06,103153066,0.030581053346395493,-0.1621057391166687,1510,1510,61.29051971435547,-0.012749752961099148
3196402.771,634015076,219.07,103153067,0.031210647895932198,-0.16747769713401794,1510,1510,61.187660217285156,-0.012248395010828972
3196502.771,634015076,219.07,103153067,0.034617871046066284,-0.1635545790195465,1510,1510,61.102439880371094,-0.012878265231847763
3196602.771,634015076,219.07,103153067,0.027861202135682106,-0.16069509088993073,1510,1510,61.038658142089844,-0.013339430093765259
3196702.771,634015076,219.08,103153068,0.026658201590180397,-0.16627950966358185,1510,1510,60.951690673828125,-0.013181166723370552
3196802.771,634015077,219.09,103153069,0.023700088262557983,-0.16663885116577148,1510,1510,60.87320327758789,-0.013088172301650047
3196902.771,634015077,219.09,103153069,0.029511205852031708,-0.1650979220867157,1510,1510,60.79482650756836,-0.013028644025325775
3197002.771,634015077,219.09,103153069,0.03434119373559952,-0.17144237458705902,1510,1510,60.71826171875,-0.013561604544520378
3197102.771,634015078,219.09,103153070,0.036850035190582275,-0.17248377203941345,1510,1510,60.63426971435547,-0.013755487278103828
3197202.771,634015078,219.09,103153070,0.034162383526563644,-0.16586804389953613,1510,1510,60.56949996948242,-0.013960659503936768
3197302.771,634015078,219.11,103153071,0.023550109937787056,-0.16267021000385284,1510,1510,60.50934600830078,-0.013595674186944962
3197402.771,634015078,219.11,103153071,0.027982188388705254,-0.15707314014434814,1510,1510,60.42601776123047,-0.0137830451130867
3197502.771,634015079,219.12,103153073,0.02760433964431286,-0.15785133838653564,1510,1510,60.359710693359375,-0.01364248339086771
3197602.771,634015079,219.12,103153073,0.026970617473125458,-0.17125515639781952,1510,1510,60.26451873779297,-0.014034091494977474
3197702.771,634015079,219.13,103153074,0.03904403746128082,-0.1706695556640625,1510,1510,60.18437194824219,-0.014011572115123272
3197802.771,634015079,219.13,103153074,0.031239597126841545,-0.17307482659816742,1510,1510,60.12703323364258,-0.014107230119407177
3197902.771,634015080,219.14,103153075,0.03320465236902237,-0.16520650684833527,1510,1510,60.05992126464844,-0.014853501692414284
3198002.771,634015080,219.14,103153075,0.027705270797014236,-0.16501998901367188,1510,1510,60.02004623413086,-0.014537014067173004
3198102.771,634015080,219.15,103153076,0.028310876339673996,-0.15654590725898743,1510,1510,59.92392349243164,-0.013757687993347645
3198202.771,634015080,219.15,103153077,0.029287170618772507,-0.15866714715957642,1510,1510,59.81669616699219,-0.013151008635759354
3198302.771,634015080,219.15,103153077,0.03476439043879509,-0.17132027447223663,1510,1510,59.71773910522461,-0.013466504402458668
3198402.771,634015081,219.17,103153078,0.03477894142270088,-0.16772332787513733,1510,1510,59.64212417602539,-0.014387601055204868
3198502.771,634015081,219.17,103153078,0.02336582913994789,-0.1682032197713852,1510,1510,59.56754684448242,-0.01433471217751503
3198602.771,634015081,219.17,103153078,0.02895156666636467,-0.16911885142326355,1510,1510,59.43427276611328,-0.014142462983727455
3198702.771,634015081,219.18,103153079,0.03171795234084129,-0.16482630372047424,1510,1510,59.333377838134766,-0.013981560245156288
3198802.771,634015081,219.18,103153080,0.03185880556702614,-0.16250234842300415,1510,1510,59.24790573120117,-0.014021079055964947
3198902.771,634015081,219.18,103153080,0.027873435989022255,-0.16102945804595947,1510,1510,59.157249450683594,-0.01337354350835085
3199002.771,634015082,219.19,103153081,0.03332165628671646,-0.16262635588645935,1510,1510,59.0912971496582,-0.013200219720602036
3199102.771,634015082,219.19,103153081,0.034199077636003494,-0.16506557166576385,1510,1510,59.00349426269531,-0.013460693880915642
3199202.771,634015082,219.19,103153082,0.02844788320362568,-0.1720694899559021,1510,1510,58.892982482910156,-0.014258240349590778
3199302.771,634015082,219.19,103153082,0.02962617203593254,-0.1700453758239746,1510,1510,58.81050109863281,-0.01434403657913208
3199402.771,634015082,219.2,103153082,0.027156909927725792,-0.1663122922182083,1510,1510,58.739418029785156,-0.014373408630490303
3199502.771,634015082,219.2,103153082,0.02658940851688385,-0.1666727364063263,1510,1510,58.67700958251953,-0.014004167169332504
3199602.771,634015082,219.2,103153082,0.029135627672076225,-0.1601584106683731,1510,1510,58.600730895996094,-0.013559339568018913
3199702.771,634015082,219.21,103153082,0.03303113207221031,-0.16009318828582764,1510,1510,58.512027740478516,-0.013139286078512669
3199802.771,634015082,219.21,103153082,0.0366811603307724,-0.16343843936920166,1510,1510,58.43131637573242,-0.014144182205200195
3199902.771,634015083,219.21,103153083,0.038748517632484436,-0.16464078426361084,1510,1510,58.336082458496094,-0.014500271528959274
3200002.771,634015083,219.21,103153084,0.03322765976190567,-0.1757965087890625,1510,1510,58.263450622558594,-0.014589682221412659
3200102.771,634015083,219.21,103153084,0.027574293315410614,-0.1710578203201294,1510,1510,58.203678131103516,-0.014615806750953197
3200202.771,634015083,219.23,103153085,0.028312236070632935,-0.1673380434513092,1510,1510,58.10435485839844,-0.014352478086948395
3200302.771,634015083,219.23,103153085,0.028906134888529778,-0.16449275612831116,1510,1510,58.03182601928711,-0.013901463709771633
3200402.771,634015083,219.23,103153085,0.0351439043879509,-0.15932634472846985,1510,1510,57.96608352661133,-0.013698981143534184
3200502.771,634015083,219.23,103153085,0.03484159708023071,-0.1635187268257141,1510,1510,57.879581451416016,-0.014193475246429443
3200602.771,634015083,219.23,103153085,0.03694769740104675,-0.1624051034450531,1510,1510,57.80769729614258,-0.014617693610489368
3200702.771,634015084,219.23,103153085,0.028349438682198524,-0.17397429049015045,1510,1510,57.7481689453125,-0.015126384794712067
3200802.771,634015084,219.23,103153085,0.023909278213977814,-0.1679413616657257,1510,1510,57.67763137817383,-0.014460699632763863
3200902.771,634015084,219.24,103153086,0.0281602181494236,-0.1652265191078186,1510,1510,57.56889343261719,-0.014185471460223198
3201002.771,634015084,219.24,103153086,0.027853092178702354,-0.16435280442237854,1510,1510,57.47509765625,-0.014648658223450184
3201102.771,634015084,219.25,103153086,0.03938334807753563,-0.17846953868865967,1510,1510,57.373558044433594,-0.014584928750991821
3201202.771,634015084,219.25,103153086,0.02857007458806038,-0.1635514497756958,1510,1510,57.27861404418945,-0.014985726214945316
3201302.771,634015085,219.24,103153087,0.025563737377524376,-0.16568082571029663,1510,1510,57.176509857177734,-0.015148306265473366
3201402.771,634015085,219.25,103153088,0.024264473468065262,-0.1593228578567505,1510,1510,57.0865478515625,-0.014936818741261959
3201502.771,634015085,219.25,103153088,0.028861545026302338,-0.16591113805770874,1510,1510,57.02836608886719,-0.01483386754989624
3201602.771,634015085,219.25,103153088,0.031369905918836594,-0.1709386706352234,1510,1510,56.962646484375,-0.014442985877394676
3201702.771,634015085,219.26,103153089,0.03610942140221596,-0.17725065350532532,1510,1510,56.868812561035156,-0.014854713343083858
3201802.771,634015085,219.27,103153089,0.03963353857398033,-0.17052757740020752,1510,1510,56.79172134399414,-0.015595294535160065
3201902.771,634015085,219.27,103153089,0.03002236783504486,-0.1684868186712265,1510,1510,56.725589752197266,-0.015246677212417126
3202002.771,634015086,219.26,103153089,0.030278796330094337,-0.16687437891960144,1510,1510,56.66782760620117,-0.01509680412709713
3202102.771,634015086,219.26,103153089,0.02457232028245926,-0.16283874213695526,1510,1510,56.615211486816406,-0.014918079599738121
3202202.771,634015086,219.26,103153089,0.03102145716547966,-0.16096222400665283,1510,1510,56.55750274658203,-0.0142823476344347
3202302.771,634015086,219.28,103153089,0.03168737143278122,-0.16746868193149567,1510,1510,56.50884246826172,-0.014793832786381245
3202402.771,634015086,219.28,103153089,0.032420720905065536,-0.17240048944950104,1510,1510,56.408843994140625,-0.014995714649558067
3202502.771,634015087,219.28,103153090,0.031065169721841812,-0.1679045855998993,1510,1510,56.3024787902832,-0.015806950628757477
3202602.771,634015087,219.28,103153090,0.027205828577280045,-0.15908317267894745,1510,1510,56.19742202758789,-0.015938758850097656
3202702.771,634015087,219.29,103153091,0.025150639936327934,-0.17028294503688812,1510,1510,56.102291107177734,-0.015298182144761086
3202802.771,634015087,219.29,103153091,0.03165939077734947,-0.16241343319416046,1510,1510,56.009368896484375,-0.01481340080499649
3202902.771,634015087,219.29,103153091,0.033884041011333466,-0.1636030077934265,1510,1510,55.926979064941406,-0.014483237639069557
3203002.771,634015087,219.29,103153091,0.0359572172164917,-0.1720435619354248,1510,1510,55.847206115722656,-0.014938758686184883
3203102.771,634015088,219.3,103153092,0.02530302107334137,-0.1725599467754364,1510,1510,55.75660705566406,-0.01569567620754242
3203202.771,634015088,219.31,103153092,0.025248151272535324,-0.167525976896286,1510,1510,55.66122817993164,-0.01572696678340435
3203302.771,634015088,219.31,103153092,0.025225477293133736,-0.16725517809391022,1510,1510,55.5506477355957,-0.015997685492038727
3203402.771,634015089,219.3,103153092,0.03144426643848419,-0.16885089874267578,1510,1510,55.458251953125,-0.015081608667969704
3203502.771,634015089,219.3,103153092,0.036463599652051926,-0.16721336543560028,1510,1510,55.36362075805664,-0.015245286747813225
3203602.771,634015089,219.3,103153092,0.03131208196282387,-0.16325689852237701,1510,1510,55.27936553955078,-0.01567060500383377
3203702.771,634015089,219.32,103153093,0.02608025074005127,-0.16653335094451904,1510,1510,55.19173049926758,-0.015555879101157188
3203802.771,634015089,219.32,103153094,0.02821044996380806,-0.1603301614522934,1510,1510,55.08720779418945,-0.01542932353913784
3203902.771,634015089,219.32,103153094,0.028432492166757584,-0.16481496393680573,1510,1510,55.01961898803711,-0.015793319791555405
3204002.771,634015090,219.33,103153094,0.025641802698373795,-0.1709987223148346,1510,1510,54.946353912353516,-0.015739241614937782
3204102.771,634015090,219.33,103153094,0.028551854193210602,-0.1705268919467926,1510,1510,54.888282775878906,-0.0158285740762949
3204202.771,634015090,219.34,103153094,0.027054719626903534,-0.1694752424955368,1510,1510,54.81175231933594,-0.01586921699345112
3204302.771,634015090,219.34,103153094,0.0320722758769989,-0.1686856597661972,1510,1510,54.74184799194336,-0.01566915586590767
3204402.771,634015091,219.34,103153095,0.037829261273145676,-0.16687218844890594,1510,1510,54.618839263916016,-0.01566050574183464
3204502.771,634015091,219.34,103153095,0.03884528577327728,-0.1696799099445343,1510,1510,54.52159118652344,-0.016192199662327766
3204602.771,634015091,219.34,103153095,0.027453040704131126,-0.16194047033786774,1510,1510,54.43268585205078,-0.01607629656791687
3204702.771,634015091,219.34,103153095,0.029774751514196396,-0.16590137779712677,1510,1510,54.351802825927734,-0.016224931925535202
3204802.771,634015091,219.34,103153095,0.023694848641753197,-0.16946613788604736,1510,1510,54.27000427246094,-0.016109071671962738
3204902.771,634015092,219.36,103153096,0.030124839395284653,-0.17126865684986115,1510,1510,54.17143249511719,-0.01593531295657158
3205002.771,634015092,219.36,103153096,0.030710317194461823,-0.16839084029197693,1510,1510,54.08591842651367,-0.01586093194782734
3205102.771,634015092,219.35,103153096,0.03273825719952583,-0.17032098770141602,1510,1510,53.998958587646484,-0.015967823565006256
3205202.771,634015092,219.35,103153096,0.023624883964657784,-0.1673349291086197,1510,1510,53.87821960449219,-0.01616753824055195
3205302.771,634015093,219.36,103153097,0.03187727928161621,-0.15858864784240723,1510,1510,53.792823791503906,-0.016478024423122406
3205402.771,634015093,219.36,103153097,0.027672212570905685,-0.16318054497241974,1510,1510,53.7129020690918,-0.01617361418902874
3205502.771,634015093,219.36,103153097,0.023155497387051582,-0.15925393998622894,1510,1510,53.628074645996094,-0.015748172998428345
3205602.771,634015093,219.36,103153097,0.027540545910596848,-0.1696075201034546,1510,1510,53.5258903503418,-0.01555178314447403
3205702.771,634015093,219.37,103153097,0.03288609907031059,-0.17239408195018768,1510,1510,53.443504333496094,-0.015966329723596573
3205802.771,634015093,219.37,103153097,0.02621307596564293,-0.16744893789291382,1510,1510,53.33657455444336,-0.016375873237848282
3205902.771,634015094,219.37,103153097,0.028270967304706573,-0.16423794627189636,1510,1510,53.25481414794922,-0.016628434881567955
3206002.771,634015094,219.37,103153097,0.032631970942020416,-0.16608594357967377,1510,1510,53.1860466003418,-0.01613510772585869
3206102.771,634015094,219.37,103153097,0.03706037253141403,-0.16399195790290833,1510,1510,53.1053581237793,-0.015618203207850456
3206202.771,634015094,219.39,103153098,0.03452643007040024,-0.1602838933467865,1510,1510,53.03019714355469,-0.015868782997131348
3206302.771,634015094,219.39,103153098,0.030957093462347984,-0.16006940603256226,1510,1510,52.936927795410156,-0.016359683126211166
3206402.771,634015094,219.39,103153098,0.027562174946069717,-0.1603434979915619,1510,1510,52.85538864135742,-0.01652415283024311
3206502.771,634015095,219.39,103153099,0.023295948281884193,-0.1683252602815628,1510,1510,52.75770950317383,-0.016012433916330338
3206602.771,634015095,219.39,103153099,0.029057100415229797,-0.17006421089172363,1510,1510,52.65245056152344,-0.016021613031625748
3206702.771,634015096,219.39,103153099,0.033764779567718506,-0.17055974900722504,1510,1510,52.51771926879883,-0.01620042696595192
3206802.771,634015096,219.4,103153099,0.02962091565132141,-0.16767388582229614,1510,1510,52.42449188232422,-0.016605159267783165
3206902.771,634015096,219.4,103153099,0.035254981368780136,-0.1594039797782898,1510,1510,52.35595703125,-0.016351832076907158
3207002.771,634015097,219.4,103153100,0.030948692932724953,-0.16361644864082336,1510,1510,52.27241134643555,-0.016009172424674034
3207102.771,634015097,219.4,103153100,0.025891371071338654,-0.16262692213058472,1510,1510,52.190731048583984,-0.016337456181645393
3207202.771,634015097,219.4,103153100,0.03440779820084572,-0.1633908599615097,1510,1510,52.09767532348633,-0.016482802107930183
3207302.771,634015097,219.4,103153099,0.02945130318403244,-0.16949035227298737,1510,1510,52.02741241455078,-0.01693541742861271
3207402.771,634015097,219.4,103153099,0.03126198798418045,-0.17340178787708282,1510,1510,51.9339714050293,-0.017087819054722786
3207502.771,634015098,219.41,103153099,0.02955055609345436,-0.17430008947849274,1510,1510,51.85117721557617,-0.016749951988458633
3207602.771,634015098,219.41,103153099,0.027097228914499283,-0.16717708110809326,1510,1510,51.74842834472656,-0.016633475199341774
3207702.771,634015098,219.42,103153100,0.035436905920505524,-0.16995082795619965,1510,1510,51.68252182006836,-0.016777440905570984
3207802.771,634015099,219.42,103153099,0.031226392835378647,-0.1638593077659607,1510,1510,51.60318374633789,-0.016934582963585854
3207902.771,634015099,219.42,103153099,0.03229065239429474,-0.16482122242450714,1510,1510,51.48344421386719,-0.01694534532725811
3208002.771,634015099,219.42,103153100,0.03059012070298195,-0.16241046786308289,1510,1510,51.354530334472656,-0.017046142369508743
3208102.771,634015099,219.42,103153100,0.03125893324613571,-0.17008712887763977,1510,1510,51.26103210449219,-0.01722738891839981
3208202.771,634015100,219.42,103153100,0.02799661085009575,-0.16832992434501648,1510,1510,51.13960266113281,-0.017411766573786736
3208302.771,634015100,219.42,103153100,0.032057926058769226,-0.1586381494998932,1510,1510,51.05083084106445,-0.017354585230350494
3208402.771,634015100,219.42,103153100,0.02672567032277584,-0.16117893159389496,1510,1510,50.93169021606445,-0.016884826123714447
3208502.771,634015100,219.42,103153100,0.03456579148769379,-0.15908388793468475,1510,1510,50.83580780029297,-0.016492992639541626
3208602.771,634015100,219.42,103153100,0.028382286429405212,-0.16418784856796265,1510,1510,50.732295989990234,-0.016931630671024323
3208702.771,634015101,219.43,103153101,0.03736083582043648,-0.16825662553310394,1510,1510,50.6337776184082,-0.017224052920937538
3208802.771,634015101,219.43,103153101,0.03014982119202614,-0.1712769865989685,1510,1510,50.53578567504883,-0.017458580434322357
3208902.771,634015102,219.43,103153101,0.02612687274813652,-0.1722361147403717,1510,1510,50.43052673339844,-0.01783883571624756
3209002.771,634015102,219.43,103153101,0.025407468900084496,-0.16365011036396027,1510,1510,50.33028793334961,-0.017339007928967476
3209102.771,634015102,219.44,103153101,0.02115337923169136,-0.1588074266910553,1510,1510,50.23447036743164,-0.0166946891695261
3209202.771,634015103,219.44,103153101,0.031026506796479225,-0.15956425666809082,1510,1510,50.14558029174805,-0.01646232418715954
3209302.771,634015103,219.44,103153101,0.038903020322322845,-0.1670140027999878,1510,1510,50.04666519165039,-0.017281532287597656
3209402.771,634015104,219.45,103153101,0.033176932483911514,-0.16776293516159058,1510,1510,49.927215576171875,-0.01788800209760666
3209502.771,634015104,219.45,103153101,0.030089451000094414,-0.17101410031318665,1510,1510,49.80896759033203,-0.018005777150392532
3209602.771,634015104,219.45,103153101,0.02047523483633995,-0.16308513283729553,1510,1510,49.738014221191406,-0.017752530053257942
3209702.771,634015104,219.45,103153101,0.02754644677042961,-0.16717295348644257,1510,1510,49.64780044555664,-0.016880402341485023
3209802.771,634015104,219.45,103153101,0.036582835018634796,-0.16695402562618256,1510,1510,49.532554626464844,-0.016306163743138313
3209902.771,634015105,219.45,103153101,0.04695142060518265,-0.17153438925743103,1510,1510,49.41825485229492,-0.016796007752418518
3210002.771,634015106,219.45,103153102,0.035889461636543274,-0.17281131446361542,1510,1510,49.3339729309082,-0.017597906291484833
3210102.771,634015106,219.45,103153102,0.017960596829652786,-0.16881461441516876,1510,1510,49.264801025390625,-0.01835431158542633
3210202.771,634015106,219.46,103153101,0.022847797721624374,-0.16216477751731873,1510,1510,49.19140625,-0.017625214532017708
3210302.771,634015106,219.46,103153101,0.02119903266429901,-0.15960517525672913,1510,1510,49.113529205322266,-0.016768475994467735
3210402.771,634015106,219.46,103153102,0.030903149396181107,-0.16804859042167664,1510,1510,49.02248001098633,-0.0161990225315094
3210502.771,634015106,219.46,103153102,0.03838121145963669,-0.1751035451889038,1510,1510,48.92056655883789,-0.016658108681440353
3210602.771,634015106,219.46,103153102,0.03003225103020668,-0.17220312356948853,1510,1510,48.7852668762207,-0.017590899020433426
3210702.771,634015107,219.47,103153102,0.024627557024359703,-0.17245306074619293,1510,1510,48.676883697509766,-0.01766810566186905
3210802.771,634015107,219.47,103153102,0.028715776279568672,-0.16179515421390533,1510,1510,48.583255767822266,-0.017337588593363762
3210902.771,634015108,219.47,103153102,0.029310055077075958,-0.16593503952026367,1510,1510,48.48410415649414,-0.016772208735346794
3211002.771,634015108,219.47,103153102,0.03737931698560715,-0.1675615906715393,1510,1510,48.383296966552734,-0.01666894555091858
3211102.771,634015108,219.47,103153103,0.034627657383680344,-0.1655227094888687,1510,1510,48.2736701965332,-0.01710842177271843
3211202.771,634015108,219.47,103153103,0.028182264417409897,-0.16916848719120026,1510,1510,48.18606948852539,-0.01709773764014244
3211302.771,634015109,219.47,103153103,0.02818864956498146,-0.1630191206932068,1510,1510,48.08549880981445,-0.017160039395093918
3211402.771,634015109,219.47,103153103,0.03179376572370529,-0.16522178053855896,1510,1510,48.01109313964844,-0.01737716980278492
3211502.771,634015110,219.48,103153103,0.028042571619153023,-0.16515442728996277,1510,1510,47.889060974121094,-0.01733338087797165
3211602.771,634015110,219.48,103153103,0.02246650867164135,-0.16614308953285217,1510,1510,47.77083969116211,-0.01702754758298397
3211702.771,634015110,219.49,103153103,0.029687456786632538,-0.1613922268152237,1510,1510,47.65081787109375,-0.016773322597146034
3211802.771,634015111,219.48,103153103,0.026475995779037476,-0.16818799078464508,1510,1510,47.555721282958984,-0.016915954649448395
3211902.771,634015111,219.48,103153103,0.030653035268187523,-0.16347263753414154,1510,1510,47.48978042602539,-0.016942840069532394
3212002.771,634015112,219.49,103153103,0.031973522156476974,-0.1616126298904419,1510,1510,47.40256118774414,-0.01724839396774769
3212102.771,634015112,219.49,103153103,0.028426989912986755,-0.15987421572208405,1510,1510,47.2981071472168,-0.01738017052412033
3212202.771,634015112,219.5,103153104,0.03053131327033043,-0.16558456420898438,1510,1510,47.20954513549805,-0.01739436760544777
3212302.771,634015112,219.5,103153104,0.03020252287387848,-0.16520342230796814,1510,1510,47.11132049560547,-0.01691850647330284
3212402.771,634015113,219.49,103153104,0.0337718166410923,-0.15969961881637573,1510,1510,47.000797271728516,-0.016537347808480263
3212502.771,634015113,219.49,103153104,0.0306960791349411,-0.16485537588596344,1510,1510,46.919376373291016,-0.01711154170334339
3212602.771,634015113,219.49,103153104,0.0318930521607399,-0.1678014099597931,1510,1510,46.856468200683594,-0.017335878685116768
3212702.771,634015113,219.5,103153104,0.026264242827892303,-0.1647881269454956,1510,1510,46.777610778808594,-0.017025787383317947
3212802.771,634015113,219.5,103153104,0.03511160612106323,-0.16464048624038696,1510,1510,46.68574142456055,-0.01713317632675171
3212902.771,634015114,219.5,103153104,0.03488922864198685,-0.16658616065979004,1510,1510,46.589080810546875,-0.016942035406827927
3213002.771,634015114,219.5,103153104,0.03172968700528145,-0.17075397074222565,1510,1510,46.49927520751953,-0.016885731369256973
3213102.771,634015115,219.5,103153104,0.02943733148276806,-0.15901759266853333,1510,1510,46.410438537597656,-0.0168067067861557
3213202.771,634015116,219.51,103153104,0.03203247860074043,-0.15995189547538757,1510,1510,46.33294677734375,-0.017341505736112595
3213302.771,634015116,219.51,103153104,0.02357611246407032,-0.16332198679447174,1510,1510,46.23263931274414,-0.01769467256963253
3213402.771,634015116,219.5,103153104,0.03162204474210739,-0.16363902390003204,1510,1510,46.11516189575195,-0.017348455265164375
3213502.771,634015116,219.5,103153104,0.03650873899459839,-0.17057983577251434,1510,1510,46.05514907836914,-0.017027786001563072
3213602.771,634015116,219.5,103153104,0.030775871127843857,-0.1667025238275528,1510,1510,45.96638488769531,-0.01699516922235489
3213702.771,634015117,219.51,103153104,0.023785553872585297,-0.16782762110233307,1510,1510,45.88095474243164,-0.016994962468743324
3213802.771,634015117,219.51,103153104,0.029020728543400764,-0.1589304506778717,1510,1510,45.788177490234375,-0.01725422590970993
3213902.771,634015117,219.51,103153104,0.030893171206116676,-0.1641700267791748,1510,1510,45.694435119628906,-0.017204519361257553
3214002.771,634015117,219.51,103153104,0.031553130596876144,-0.16485260426998138,1510,1510,45.608848571777344,-0.016601378098130226
3214102.771,634015117,219.52,103153103,0.032487690448760986,-0.16997766494750977,1510,1510,45.51558303833008,-0.016324758529663086
3214202.771,634015118,219.52,103153104,0.03433312475681305,-0.16846099495887756,1510,1510,45.44670867919922,-0.0165295097976923
3214302.771,634015118,219.52,103153104,0.025162680074572563,-0.16784270107746124,1510,1510,45.36359405517578,-0.0169324092566967
3214402.771,634015118,219.52,103153104,0.025824977084994316,-0.17192360758781433,1510,1510,45.28224182128906,-0.017131153494119644
3214502.771,634015119,219.52,103153104,0.029875412583351135,-0.16842761635780334,1510,1510,45.18129348754883,-0.017047543078660965
3214602.771,634015119,219.52,103153104,0.031701382249593735,-0.16737481951713562,1510,1510,45.092220306396484,-0.016682621091604233
3214702.771,634015120,219.53,103153104,0.031280625611543655,-0.16422714293003082,1510,1510,45.00531768798828,-0.017059946432709694
3214802.771,634015120,219.53,103153104,0.028699811547994614,-0.16972333192825317,1510,1510,44.91628646850586,-0.017104653641581535
3214902.771,634015120,219.53,103153104,0.03025847300887108,-0.1656506359577179,1510,1510,44.83150863647461,-0.017017986625432968
3215002.771,634015120,219.53,103153104,0.028493154793977737,-0.16907256841659546,1510,1510,44.74287796020508,-0.016749847680330276
3215102.771,634015121,219.53,103153104,0.041803061962127686,-0.17090150713920593,1510,1510,44.644195556640625,-0.01666594296693802
3215202.771,634015121,219.54,103153104,0.032935433089733124,-0.16819030046463013,1510,1510,44.57866668701172,-0.017086640000343323
3215302.771,634015121,219.54,103153104,0.027618885040283203,-0.16668657958507538,1510,1510,44.480690002441406,-0.017332592979073524
3215402.771,634015122,219.54,103153104,0.02301807329058647,-0.15887832641601562,1510,1510,44.401153564453125,-0.01727219857275486
3215502.771,634015122,219.54,103153104,0.02864420972764492,-0.16206854581832886,1510,1510,44.30842971801758,-0.016594968736171722
3215602.771,634015122,219.54,103153104,0.03411879390478134,-0.16602474451065063,1510,1510,44.1800651550293,-0.01632131077349186
3215702.771,634015122,219.54,103153104,0.03573089838027954,-0.17220720648765564,1510,1510,44.09620666503906,-0.016772085800766945
3215802.771,634015122,219.54,103153104,0.03197403997182846,-0.16989636421203613,1510,1510,44.01504898071289,-0.017518196254968643
3215902.771,634015123,219.55,103153105,0.03222538158297539,-0.16871759295463562,1510,1510,43.93726348876953,-0.017282355576753616
3216002.771,634015123,219.55,103153105,0.03380997106432915,-0.16218461096286774,1510,1510,43.85879898071289,-0.01673927716910839
3216102.771,634015123,219.55,103153104,0.02757580764591694,-0.1626514047384262,1510,1510,43.805267333984375,-0.016416551545262337
3216202.771,634015123,219.55,103153104,0.030128462240099907,-0.1611986607313156,1510,1510,43.7158317565918,-0.01638716645538807
3216302.771,634015123,219.55,103153105,0.03419555723667145,-0.15817636251449585,1510,1510,43.62379837036133,-0.016602255403995514
3216402.771,634015123,219.55,103153105,0.030415434390306473,-0.16177570819854736,1510,1510,43.514522552490234,-0.017136937007308006
3216502.771,634015124,219.56,103153104,0.032332804054021835,-0.16713225841522217,1510,1510,43.41059494018555,-0.016735360026359558
3216602.771,634015124,219.56,103153104,0.02536758780479431,-0.16719134151935577,1510,1510,43.318058013916016,-0.01679694652557373
3216702.771,634015124,219.56,103153104,0.03481760993599892,-0.1697862148284912,1510,1510,43.22688674926758,-0.0166912991553545
3216802.771,634015124,219.56,103153104,0.0383828729391098,-0.17128561437129974,1510,1510,43.11798858642578,-0.0163235142827034
3216902.771,634015124,219.56,103153104,0.03441757336258888,-0.16687792539596558,1510,1510,43.03049850463867,-0.0166187584400177
3217002.771,634015125,219.57,103153104,0.027881644666194916,-0.1729113608598709,1510,1510,42.91594696044922,-0.01625705324113369
3217102.771,634015125,219.57,103153104,0.026562394574284554,-0.16365475952625275,1510,1510,42.78372573852539,-0.01666020229458809
3217202.771,634015125,219.57,103153104,0.03236864507198334,-0.1643308848142624,1510,1510,42.704830169677734,-0.016439948230981827
3217302.771,634015125,219.57,103153104,0.0332811176776886,-0.1650736927986145,1510,1510,42.6292724609375,-0.01651395484805107
3217402.771,634015126,219.57,103153104,0.029847994446754456,-0.16410508751869202,1510,1510,42.54888153076172,-0.01669832319021225
3217502.771,634015126,219.57,103153104,0.029585473239421844,-0.16993796825408936,1510,1510,42.454071044921875,-0.01629970222711563
3217602.771,634015126,219.57,103153104,0.02458195760846138,-0.16857010126113892,1510,1510,42.36909103393555,-0.016016095876693726
3217702.771,634015126,219.57,103153104,0.036977361887693405,-0.16030137240886688,1510,1510,42.28871536254883,-0.016419414430856705
3217802.771,634015126,219.57,103153104,0.029136501252651215,-0.15760543942451477,1510,1510,42.18865966796875,-0.01638834737241268
3217902.771,634015127,219.58,103153104,0.02742610312998295,-0.16411419212818146,1510,1510,42.09096145629883,-0.01667281799018383
3218002.771,634015127,219.58,103153104,0.02353731542825699,-0.16575902700424194,1510,1510,41.98241424560547,-0.016664056107401848
3218102.771,634015127,219.58,103153104,0.02610226348042488,-0.1677025854587555,1510,1510,41.837989807128906,-0.01640348881483078
3218202.771,634015128,219.58,103153104,0.03624806925654411,-0.1719222217798233,1510,1510,41.837989807128906,-0.01643785648047924
3218302.771,634015128,219.58,103153104,0.027544913813471794,-0.16673341393470764,1510,1510,41.76190185546875,-0.01623801700770855
3218402.771,634015128,219.58,103153104,0.03219548612833023,-0.16229932010173798,1510,1510,41.6623420715332,-0.016415178775787354
3218502.771,634015128,219.59,103153104,0.04166611656546593,-0.16519781947135925,1510,1510,41.57843017578125,-0.016627702862024307
3218602.771,634015128,219.59,103153104,0.030964652076363564,-0.16117115318775177,1510,1510,41.51494216918945,-0.016732433810830116
3218702.771,634015127,219.58,103153103,0.02798650786280632,-0.16404061019420624,1510,1510,41.40668487548828,-0.01706373319029808
3218802.771,634015128,219.59,103153102,0.03011973574757576,-0.16472427546977997,1510,1510,41.319122314453125,-0.016912318766117096
3218902.771,634015128,219.59,103153102,0.03387584164738655,-0.16141578555107117,1510,1510,41.23641586303711,-0.016224266961216927
3219002.771,634015128,219.59,103153102,0.03287552669644356,-0.1685953587293625,1510,1510,41.14432144165039,-0.016229918226599693
3219102.771,634015128,219.58,103153102,0.02839297242462635,-0.17242267727851868,1510,1510,41.07670974731445,-0.017048101872205734
3219202.771,634015128,219.58,103153102,0.031500138342380524,-0.17306402325630188,1510,1510,40.967529296875,-0.016967613250017166
3219302.771,634015128,219.58,103153102,0.03347310796380043,-0.16740022599697113,1510,1510,40.83479309082031,-0.01755373552441597
3219402.771,634015129,219.58,103153101,0.028753187507390976,-0.16299937665462494,1510,1510,40.71470260620117,-0.0174055565148592
3219502.771,634015129,219.58,103153101,0.02588849887251854,-0.1586856245994568,1510,1510,40.625877380371094,-0.016530070453882217
3219602.771,634015129,219.58,103153101,0.034357089549303055,-0.1598660796880722,1510,1510,40.5596923828125,-0.01684284396469593
3219702.771,634015130,219.58,103153101,0.030260367318987846,-0.17396953701972961,1510,1510,40.486122131347656,-0.01665281318128109
3219802.771,634015129,219.59,103153101,0.029779773205518723,-0.16924448311328888,1510,1510,40.37470626831055,-0.017037343233823776
3219902.771,634015129,219.59,103153101,0.028716888278722763,-0.1698315441608429,1510,1510,40.25511169433594,-0.01725614070892334
3220002.771,634015129,219.59,103153101,0.02630886435508728,-0.16042828559875488,1510,1510,40.1961669921875,-0.017269132658839226
3220102.771,634015130,219.58,103153101,0.029778962954878807,-0.16313019394874573,1510,1510,40.093570709228516,-0.017006890848279
3220202.771,634015130,219.59,103153101,0.030383015051484108,-0.1631767749786377,1510,1510,40.012203216552734,-0.0167046207934618
3220302.771,634015130,219.59,103153101,0.029176685959100723,-0.16867777705192566,1510,1510,39.95884323120117,-0.01619531959295273
3220402.771,634015131,219.59,103153100,0.026581253856420517,-0.16972306370735168,1510,1510,39.862430572509766,-0.016581805422902107
3220502.771,634015131,219.59,103153100,0.03126905858516693,-0.1680326610803604,1510,1510,39.747310638427734,-0.016479341313242912
3220602.771,634015131,219.59,103153100,0.03254111111164093,-0.16980430483818054,1510,1510,39.677703857421875,-0.01703968085348606
3220702.771,634015131,219.6,103153100,0.034222789108753204,-0.16458235681056976,1510,1510,39.590389251708984,-0.017074959352612495
3220802.771,634015132,219.6,103153100,0.031110206618905067,-0.1599631905555725,1510,1510,39.49287414550781,-0.016845764592289925
3220902.771,634015132,219.6,103153100,0.03046882338821888,-0.16482672095298767,1510,1510,39.38776397705078,-0.0168906282633543
3221002.771,634015132,219.6,103153100,0.031289663165807724,-0.15859778225421906,1510,1510,39.27629089355469,-0.016678618267178535
3221102.771,634015132,219.6,103153100,0.036242008209228516,-0.16656121611595154,1510,1510,39.17145538330078,-0.01676054671406746
3221202.771,634015132,219.6,103153100,0.028308432549238205,-0.17168132960796356,1510,1510,39.08177185058594,-0.016790378838777542
3221302.771,634015132,219.6,103153100,0.027978403493762016,-0.16199062764644623,1510,1510,39.011234283447266,-0.017082978039979935
3221402.771,634015132,219.6,103153100,0.03087073750793934,-0.17013825476169586,1510,1510,38.94408416748047,-0.016819331794977188
3221502.771,634015133,219.61,103153100,0.02448234148323536,-0.16418206691741943,1510,1510,38.84378433227539,-0.016303669661283493
3221602.771,634015133,219.61,103153100,0.031695879995822906,-0.16627287864685059,1510,1510,38.77280044555664,-0.016290120780467987
3221702.771,634015134,219.61,103153100,0.03026803396642208,-0.16816920042037964,1510,1510,38.6484260559082,-0.016777334734797478
3221802.771,634015134,219.61,103153100,0.025869805365800858,-0.16533628106117249,1510,1510,38.56587600708008,-0.016730664297938347
3221902.771,634015134,219.62,103153100,0.027251483872532845,-0.16289088129997253,1510,1510,38.47472381591797,-0.016928933560848236
3222002.771,634015134,219.62,103153100,0.029812488704919815,-0.15991666913032532,1510,1510,38.37957000732422,-0.017222076654434204
3222102.771,634015134,219.62,103153100,0.03082912787795067,-0.1634884774684906,1510,1510,38.26664352416992,-0.016694974154233932
3222202.771,634015135,219.63,103153100,0.039776235818862915,-0.17129044234752655,1510,1510,38.1605224609375,-0.016372375190258026
3222302.771,634015135,219.63,103153100,0.036508407443761826,-0.16699370741844177,1510,1510,38.04372024536133,-0.016334373503923416
3222402.771,634015135,219.63,103153099,0.032748088240623474,-0.16922792792320251,1510,1510,37.9390983581543,-0.016648193821310997
3222502.771,634015135,219.63,103153099,0.02547730691730976,-0.164309561252594,1510,1510,37.85092544555664,-0.01671920344233513
3222602.771,634015135,219.63,103153099,0.027162164449691772,-0.1645532101392746,1510,1510,37.78547286987305,-0.017141684889793396
3222702.771,634015136,219.62,103153099,0.03166266530752182,-0.1657482087612152,1510,1510,37.71737289428711,-0.016587885096669197
3222802.771,634015136,219.62,103153099,0.02986936829984188,-0.16807284951210022,1510,1510,37.633296966552734,-0.01661764271557331
3222902.771,634015136,219.63,103153099,0.02759420871734619,-0.16617991030216217,1510,1510,37.53089904785156,-0.016777556389570236
3223002.771,634015136,219.63,103153099,0.03204023465514183,-0.1711684614419937,1510,1510,37.43238067626953,-0.01637084037065506
3223102.771,634015137,219.64,103153100,0.032589539885520935,-0.17165660858154297,1510,1510,37.397090911865234,-0.016091257333755493
3223202.771,634015137,219.64,103153099,0.03231425583362579,-0.1714104413986206,1510,1510,37.30681228637695,-0.016366466879844666
3223302.771,634015137,219.64,103153099,0.03538636863231659,-0.16406044363975525,1510,1510,37.18523406982422,-0.016931623220443726
3223402.771,634015138,219.64,103153099,0.03973336145281792,-0.16131313145160675,1510,1510,37.08477783203125,-0.017125394195318222
3223502.771,634015138,219.64,103153099,0.02229553461074829,-0.16599628329277039,1510,1510,36.961238861083984,-0.016900986433029175
3223602.771,634015138,219.64,103153099,0.03218211233615875,-0.1649211347103119,1510,1510,36.87324142456055,-0.016589948907494545
3223702.771,634015138,219.65,103153099,0.03327838331460953,-0.1678515523672104,1510,1510,36.794944763183594,-0.01633509248495102
3223802.771,634015138,219.65,103153099,0.041640084236860275,-0.1752769947052002,1510,1510,36.707305908203125,-0.016752971336245537
3223902.771,634015138,219.65,103153099,0.029707852751016617,-0.16156281530857086,1510,1510,36.57428741455078,-0.01726629212498665
3224002.771,634015138,219.65,103153099,0.03203928470611572,-0.16445767879486084,1510,1510,36.482177734375,-0.01724771410226822
3224102.771,634015139,219.66,103153099,0.028615623712539673,-0.1665533185005188,1510,1510,36.373844146728516,-0.016849733889102936
3224202.771,634015139,219.66,103153099,0.02527805231511593,-0.1665632277727127,1510,1510,36.26974868774414,-0.016482815146446228
3224302.771,634015140,219.65,103153098,0.03428807482123375,-0.16966137290000916,1510,1510,36.16856002807617,-0.01660146750509739
3224402.771,634015139,219.66,103153098,0.03164933621883392,-0.16849692165851593,1510,1510,36.052223205566406,-0.016455527395009995
3224502.771,634015139,219.66,103153098,0.02772717922925949,-0.16534508764743805,1510,1510,35.98021697998047,-0.01643402874469757
3224602.771,634015139,219.66,103153098,0.032764412462711334,-0.16381187736988068,1510,1510,35.921363830566406,-0.016413193196058273
3224702.771,634015140,219.67,103153099,0.024028364568948746,-0.1639195680618286,1510,1510,35.80721664428711,-0.016794737428426743
3224802.771,634015140,219.68,103153098,0.030812973156571388,-0.16836035251617432,1510,1510,35.71828842163086,-0.017008056864142418
3224902.771,634015140,219.68,103153098,0.028744863346219063,-0.16932320594787598,1510,1510,35.619529724121094,-0.017002969980239868
3225002.771,634015141,219.67,103153098,0.02874648943543434,-0.1625279188156128,1510,1510,35.50016403198242,-0.01669793576002121
3225102.771,634015141,219.67,103153098,0.02827594242990017,-0.16432633996009827,1510,1510,35.401084899902344,-0.016111519187688828
3225202.771,634015141,219.67,103153098,0.03558710217475891,-0.16765326261520386,1510,1510,35.29391860961914,-0.01636260747909546
3225302.771,634015141,219.68,103153098,0.035323213785886765,-0.16857358813285828,1510,1510,35.20808029174805,-0.01687544584274292
3225402.771,634015141,219.68,103153098,0.032723136246204376,-0.16887080669403076,1510,1510,35.129425048828125,-0.017012014985084534
3225502.771,634015141,219.69,103153098,0.025524165481328964,-0.16701798141002655,1612,1574,35.031097412109375,-0.016808975487947464
3225602.771,634015141,219.69,103153098,0.034098975360393524,-0.09348548203706741,1900,1753,35.003177642822266,-0.007185856346040964
3225702.771,634015141,219.69,103153098,0.014459068886935711,-0.1258152276277542,1900,1753,35.171932220458984,0.028390809893608093
3225802.771,634015141,219.69,103153098,-0.011790750548243523,-0.17174223065376282,1510,1510,35.4869499206543,0.05781909450888634
3225902.771,634015142,219.69,103153098,0.1800503134727478,-0.13719838857650757,1510,1510,35.76551818847656,0.054012469947338104
3226002.771,634015142,219.69,103153098,0.008626398630440235,-0.09632568061351776,1510,1510,36.04533386230469,0.04437364265322685
3226102.771,634015142,219.7,103153099,0.0112985298037529,-0.22784683108329773,1510,1510,36.36289978027344,0.04802389070391655
3226202.771,634015142,219.7,103153099,-0.17133820056915283,-0.18185263872146606,1789,1684,36.694183349609375,0.05841493979096413
3226302.771,634015142,219.7,103153099,0.09001072496175766,-0.09910400956869125,1510,1510,37.25385665893555,0.09054458141326904
3226402.771,634015142,219.7,103153099,0.08658243715763092,-0.1496075987815857,1510,1510,37.83305740356445,0.10837976634502411
3226502.771,634015142,219.7,103153099,0.09529510140419006,-0.1770409345626831,1510,1510,38.3299560546875,0.0919603705406189
3226602.771,634015142,219.7,103153099,0.09976570308208466,-0.13699676096439362,1510,1510,38.807254791259766,0.07753851264715195
3226702.771,634015143,219.7,103153099,-0.0018771460745483637,-0.14683255553245544,1510,1510,39.22783660888672,0.07338355481624603
3226802.771,634015143,219.7,103153099,0.009033500216901302,-0.19310615956783295,1510,1510,39.708412170410156,0.08027265965938568
3226902.771,634015143,219.71,103153100,-0.03841833770275116,-0.15244778990745544,1510,1510,40.225948333740234,0.09022027999162674
3227002.771,634015143,219.71,103153100,0.08381757140159607,-0.15710492432117462,1442,1401,40.77622985839844,0.09569171071052551
3227102.771,634015143,219.71,103153100,0.269911527633667,-0.24028311669826508,1510,1510,41.177574157714844,0.07633115351200104
3227202.771,634015144,219.71,103153101,0.06850161403417587,-0.23568682372570038,1510,1510,41.41419219970703,0.04038587212562561
3227302.771,634015144,219.71,103153101,0.09000647813081741,-0.17058277130126953,1510,1510,41.601539611816406,0.033861689269542694
3227402.771,634015144,219.72,103153103,0.01943504624068737,-0.165945902466774,1510,1510,41.80025863647461,0.03573331981897354
3227502.771,634015144,219.72,103153103,0.008034070022404194,-0.17034417390823364,1510,1510,42.02244567871094,0.04184200242161751
3227602.771,634015144,219.72,103153103,-0.0054258559830486774,-0.11375705897808075,1691,1623,42.30698013305664,0.04882998764514923
3227702.771,634015145,219.73,103153104,0.03670162335038185,-0.14718033373355865,1691,1623,42.59323501586914,0.04914999008178711
3227802.771,634015145,219.73,103153104,-0.03235210105776787,-0.19859078526496887,1510,1510,42.87563705444336,0.049111396074295044
3227902.771,634015145,219.72,103153105,0.08760304749011993,-0.1856105774641037,1510,1510,43.1300163269043,0.046182457357645035
3228002.771,634015145,219.72,103153105,0.04769427329301834,-0.11404971778392792,1510,1510,43.33993148803711,0.03827214986085892
3228102.771,634015146,219.73,103153106,0.04412071406841278,-0.2129996418952942,1510,1510,43.559810638427734,0.040064737200737
3228202.771,634015146,219.73,103153107,0.026231974363327026,-0.17642498016357422,1510,1510,43.89918518066406,0.047654639929533005
3228302.771,634015146,219.73,103153107,0.048653751611709595,-0.12846502661705017,1510,1510,44.17514419555664,0.05101931467652321
3228402.771,634015146,219.74,103153109,0.021204382181167603,-0.18593357503414154,1503,1498,44.444549560546875,0.0483497753739357
3228502.771,634015146,219.74,103153109,0.022272566333413124,-0.16303957998752594,1502,1496,44.70502471923828,0.04253116250038147
3228602.771,634015146,219.74,103153109,0.04448137804865837,-0.13972170650959015,1401,1335,44.92259979248047,0.038104645907878876
3228702.771,634015148,219.74,103153110,0.13852345943450928,-0.23735065758228302,1510,1510,45.12992858886719,0.03461595997214317
3228802.771,634015148,219.74,103153112,0.2019871473312378,-0.16053570806980133,1510,1510,45.18391799926758,0.013604707084596157
3228902.771,634015148,219.74,103153112,-0.03356960043311119,-0.10773733258247375,1510,1510,45.28519821166992,0.012090716511011124
3229002.771,634015148,219.74,103153112,0.10113473981618881,-0.21988970041275024,1510,1510,45.440608978271484,0.023813661187887192
3229102.771,634015149,219.74,103153114,0.006276263389736414,-0.12396542727947235,1510,1510,45.619354248046875,0.029020745307207108
3229202.771,634015150,219.74,103153116,0.11473388969898224,-0.16503363847732544,1510,1510,45.74080276489258,0.022458938881754875
3229302.771,634015150,219.74,103153116,-0.01768953911960125,-0.20255890488624573,1510,1510,45.78061294555664,0.009924688376486301
3229402.771,634015150,219.74,103153116,0.03127684071660042,-0.15597258508205414,1510,1510,45.79511642456055,0.0022951243445277214
3229502.771,634015151,219.75,103153117,-0.04958915337920189,-0.12966331839561462,1510,1510,45.85452651977539,0.006037954241037369
3229602.771,634015151,219.75,103153117,0.011312694288790226,-0.19159667193889618,1510,1510,45.97678756713867,0.01603124849498272
3229702.771,634015151,219.76,103153119,0.0328112430870533,-0.15605203807353973,1510,1510,46.114501953125,0.022438324987888336
3229802.771,634015151,219.76,103153119,0.08303145319223404,-0.15568900108337402,1510,1510,46.24277877807617,0.021678559482097626
3229902.771,634015153,219.76,103153121,0.052193619310855865,-0.19104892015457153,1510,1510,46.327880859375,0.015461422502994537
3230002.771,634015153,219.76,103153121,0.05916035920381546,-0.16435882449150085,1510,1510,46.37841796875,0.009386993944644928
3230102.771,634015153,219.76,103153122,0.02234763652086258,-0.17285391688346863,1510,1510,46.409610748291016,0.007220853120088577
3230202.771,634015153,219.76,103153122,0.003583577461540699,-0.1777857542037964,1510,1510,46.46542739868164,0.008403387852013111
3230302.771,634015154,219.76,103153124,-0.00903518870472908,-0.14528295397758484,1510,1510,46.53794479370117,0.012406738474965096
3230402.771,634015155,219.77,103153126,0.01604623533785343,-0.1397484987974167,1510,1510,46.64912796020508,0.016285421326756477
3230502.771,634015155,219.77,103153126,0.03812973573803902,-0.16035695374011993,1510,1510,46.72707748413086,0.01691763661801815
3230602.771,634015155,219.77,103153126,0.0616295225918293,-0.17262423038482666,1510,1510,46.78509521484375,0.012716332450509071
3230702.771,634015156,219.77,103153128,0.04978062957525253,-0.16814455389976501,1510,1510,46.8339729309082,0.007443358190357685
3230802.771,634015156,219.77,103153128,0.03577359765768051,-0.18276427686214447,1510,1510,46.872657775878906,0.006382594350725412
3230902.771,634015157,219.76,103153128,0.026601474732160568,-0.1597226858139038,1510,1510,46.9503173828125,0.008802149444818497
3231002.771,634015157,219.76,103153128,0.018022485077381134,-0.1567707657814026,1510,1510,47.05187225341797,0.01242582593113184
3231102.771,634015158,219.76,103153131,0.02064106985926628,-0.1657412201166153,1510,1510,47.10893249511719,0.013964231126010418
3231202.771,634015159,219.76,103153132,0.02655031345784664,-0.15241211652755737,1510,1510,47.16389465332031,0.012506265193223953
3231302.771,634015159,219.76,103153132,0.02724088542163372,-0.1559184491634369,1510,1510,47.225399017333984,0.009521660394966602
3231402.771,634015160,219.76,103153134,0.027202703058719635,-0.1710752695798874,1510,1510,47.31277084350586,0.0075255814008414745
3231502.771,634015160,219.76,103153134,0.030382409691810608,-0.17600731551647186,1510,1510,47.39080810546875,0.007227056194096804
3231602.771,634015160,219.76,103153134,0.03950866311788559,-0.17864638566970825,1510,1510,47.42667770385742,0.007719844579696655
3231702.771,634015160,219.77,103153135,0.03247532248497009,-0.1638730764389038,1510,1510,47.467594146728516,0.008888423442840576
3231802.771,634015160,219.77,103153135,0.02370506152510643,-0.150028795003891,1510,1510,47.49077606201172,0.010537369176745415
3231902.771,634015161,219.76,103153137,0.030992165207862854,-0.14862889051437378,1510,1510,47.55036544799805,0.011754125356674194
3232002.771,634015162,219.77,103153138,-0.09510402381420135,-0.16996705532073975,1510,1510,47.59005355834961,0.010302778333425522
3232102.771,634015162,219.77,103153138,0.08566997200250626,-0.15642394125461578,1510,1510,47.6584358215332,0.01280919834971428
3232202.771,634015163,219.76,103153140,-0.024627985432744026,-0.15660852193832397,1510,1510,47.67249298095703,0.009811758995056152
3232302.771,634015163,219.76,103153140,0.04277433082461357,-0.198391854763031,1510,1510,47.71173095703125,0.008222313597798347
3232402.771,634015164,219.77,103153141,0.0022846474312245846,-0.13421399891376495,1510,1510,47.759090423583984,0.010407809168100357
3232502.771,634015164,219.77,103153141,0.06828805804252625,-0.16728922724723816,1510,1510,47.8265380859375,0.012355823069810867
3232602.771,634015164,219.77,103153141,0.029938088729977608,-0.1836961954832077,1510,1510,47.90715408325195,0.013626930303871632
3232702.771,634015164,219.76,103153142,0.06688456237316132,-0.1635720133781433,1510,1510,47.96671676635742,0.012386727146804333
3232802.771,634015164,219.76,103153142,0.03217647969722748,-0.16699346899986267,1510,1510,48.017765045166016,0.010036367923021317
3232902.771,634015165,219.76,103153144,0.03445342555642128,-0.18504837155342102,1510,1510,48.06998062133789,0.008250624872744083
3233002.771,634015166,219.76,103153145,0.009077558293938637,-0.1478290557861328,1510,1510,48.12730026245117,0.007507676724344492
3233102.771,634015166,219.76,103153145,0.008114486932754517,-0.1565195620059967,1510,1510,48.18731689453125,0.007893355563282967
3233202.771,634015166,219.77,103153147,0.002295666839927435,-0.1631879210472107,1510,1510,48.24122619628906,0.00885248463600874
3233302.771,634015166,219.77,103153147,0.03512611985206604,-0.14563879370689392,1510,1510,48.31338882446289,0.010140510275959969
3233402.771,634015167,219.76,103153148,0.048624392598867416,-0.16883429884910583,1510,1510,48.369483947753906,0.010231204330921173
3233502.771,634015167,219.76,103153148,0.054710011929273605,-0.19138139486312866,1510,1510,48.399906158447266,0.008732272312045097
3233602.771,634015167,219.76,103153148,0.03853064402937889,-0.18327596783638,1510,1510,48.418704986572266,0.006531801074743271
3233702.771,634015168,219.77,103153149,0.026536565274000168,-0.17154894769191742,1510,1510,48.45323944091797,0.005270003341138363
3233802.771,634015169,219.76,103153150,0.0012622496578842402,-0.15661104023456573,1510,1510,48.524200439453125,0.0065999580547213554
3233902.771,634015169,219.76,103153150,0.014589915052056313,-0.1464369297027588,1510,1510,48.60557174682617,0.007706272415816784
3234002.771,634015169,219.76,103153150,0.020351441577076912,-0.15309274196624756,1510,1510,48.65476608276367,0.008207026869058609
3234102.771,634015169,219.77,103153152,0.034739404916763306,-0.1682843267917633,1510,1510,48.702701568603516,0.007773684337735176
3234202.771,634015169,219.77,103153152,0.048635855317115784,-0.16812174022197723,1510,1510,48.74677658081055,0.00662816921249032
3234302.771,634015170,219.77,103153153,0.05032864958047867,-0.17292822897434235,1510,1510,48.75642776489258,0.005099474918097258
3234402.771,634015170,219.77,103153153,0.032087113708257675,-0.17499852180480957,1510,1510,48.779239654541016,0.0039479429833590984
3234502.771,634015171,219.77,103153155,0.023829041048884392,-0.15298590064048767,1510,1510,48.8190803527832,0.004315409809350967
3234602.771,634015171,219.77,103153155,0.0264046061784029,-0.15831515192985535,1510,1510,48.853797912597656,0.00662339897826314
3234702.771,634015172,219.77,103153156,0.01936403289437294,-0.1552400290966034,1510,1510,48.92327117919922,0.0078643299639225
3234802.771,634015172,219.76,103153157,0.027661629021167755,-0.1706555187702179,1510,1510,48.96565246582031,0.00709907291457057
3234902.771,634015172,219.76,103153157,0.03326030075550079,-0.18196918070316315,1510,1510,48.998023986816406,0.004848238546401262
3235002.771,634015173,219.76,103153158,0.031265027821063995,-0.18064437806606293,1510,1510,49.02756118774414,0.0031572412699460983
3235102.771,634015173,219.76,103153158,0.024321306496858597,-0.16037817299365997,1510,1510,49.053951263427734,0.0024016443639993668
3235202.771,634015173,219.76,103153158,0.025214416906237602,-0.15608540177345276,1510,1510,49.071109771728516,0.0036996169947087765
3235302.771,634015173,219.76,103153159,0.024094542488455772,-0.14848122000694275,1510,1510,49.09931564331055,0.005799948703497648
3235402.771,634015173,219.76,103153160,0.03429419919848442,-0.16597414016723633,1510,1510,49.118228912353516,0.00741263572126627
3235502.771,634015173,219.76,103153160,0.03483927994966507,-0.18077659606933594,1510,1510,49.135162353515625,0.006840750575065613
3235602.771,634015173,219.76,103153160,0.03670120611786842,-0.1807011216878891,1510,1510,49.157073974609375,0.004419892095029354
3235702.771,634015174,219.75,103153160,0.026789221912622452,-0.16948048770427704,1510,1510,49.17263412475586,0.002229766920208931
3235802.771,634015174,219.76,103153161,0.022320615127682686,-0.15781880915164948,1510,1510,49.1621208190918,0.0012240835931152105
3235902.771,634015174,219.76,103153161,0.015932433307170868,-0.1474808156490326,1510,1510,49.16661834716797,0.0026138853281736374
3236002.771,634015174,219.76,103153161,0.021823717281222343,-0.15425503253936768,1510,1510,49.19660568237305,0.005362770054489374
3236102.771,634015175,219.75,103153163,0.034267082810401917,-0.16353538632392883,1510,1510,49.23141098022461,0.006505805533379316
3236202.771,634015174,219.75,103153163,0.04959550499916077,-0.17745724320411682,1510,1510,49.25162887573242,0.005371760576963425
3236302.771,634015174,219.75,103153163,0.038744308054447174,-0.1779569387435913,1510,1510,49.280635833740234,0.002892458811402321
3236402.771,634015176,219.75,103153164,0.028953293338418007,-0.17704398930072784,1510,1510,49.294795989990234,0.001632775878533721
3236502.771,634015176,219.75,103153164,0.017814423888921738,-0.1601260006427765,1510,1510,49.315773010253906,0.0020547446329146624
3236602.771,634015176,219.75,103153164,0.028079792857170105,-0.1465638279914856,1510,1510,49.321990966796875,0.0033361834939569235
3236702.771,634015176,219.75,103153165,0.024050811305642128,-0.14766526222229004,1510,1510,49.34937286376953,0.004623182117938995
3236802.771,634015176,219.75,103153165,0.02421175315976143,-0.16655907034873962,1510,1510,49.36319351196289,0.0045724837109446526
3236902.771,634015176,219.74,103153166,0.03732915222644806,-0.17833468317985535,1510,1510,49.4035530090332,0.003795597003772855
3237002.771,634015177,219.74,103153167,0.04105539247393608,-0.17344260215759277,1510,1510,49.3967399597168,0.0030579546000808477
3237102.771,634015177,219.74,103153167,0.030141567811369896,-0.17087438702583313,1510,1510,49.41334915161133,0.0018955409759655595
3237202.771,634015177,219.74,103153168,0.02653336524963379,-0.1553311049938202,1510,1510,49.42494583129883,0.001575012574903667
3237302.771,634015177,219.74,103153168,0.02777855657041073,-0.1565227508544922,1510,1510,49.45198059082031,0.0027304552495479584
3237402.771,634015178,219.73,103153169,0.028349710628390312,-0.1675747036933899,1510,1510,49.45813751220703,0.004419745411723852
3237502.771,634015178,219.73,103153169,0.03565504774451256,-0.16614636778831482,1510,1510,49.46202087402344,0.0041901059448719025
3237602.771,634015178,219.73,103153169,0.030749516561627388,-0.16750602424144745,1510,1510,49.4815788269043,0.003407146316021681
3237702.771,634015178,219.74,103153170,0.03213025629520416,-0.1705007553100586,1510,1510,49.516929626464844,0.0022335152607411146
3237802.771,634015178,219.74,103153171,0.030460726469755173,-0.17392291128635406,1510,1510,49.521934509277344,0.0012972727417945862
3237902.771,634015178,219.74,103153171,0.028589455410838127,-0.15708962082862854,1510,1510,49.554725646972656,0.001781501225195825
3238002.771,634015178,219.74,103153171,0.028672227635979652,-0.16024741530418396,1510,1510,49.58518981933594,0.0029162154532969
3238102.771,634015179,219.74,103153171,0.025591980665922165,-0.16489727795124054,1510,1510,49.621116638183594,0.003876994363963604
3238202.771,634015179,219.74,103153173,0.019771479070186615,-0.16787946224212646,1510,1510,49.63313674926758,0.003674999112263322
3238302.771,634015179,219.74,103153173,0.03132281452417374,-0.1720205396413803,1510,1510,49.63212203979492,0.0028756242245435715
3238402.771,634015180,219.74,103153174,0.03397184610366821,-0.1681758612394333,1510,1510,49.66873550415039,0.0027594531420618296
3238502.771,634015180,219.74,103153174,0.03420320153236389,-0.17092052102088928,1510,1510,49.691261291503906,0.002217648085206747
3238602.771,634015180,219.74,103153174,0.032314371317625046,-0.1599080115556717,1510,1510,49.70146179199219,0.0014186525950208306
3238702.771,634015181,219.74,103153175,0.02794395387172699,-0.15470018982887268,1510,1510,49.72771453857422,0.001526215928606689
3238802.771,634015181,219.74,103153176,0.023110203444957733,-0.15958677232265472,1510,1510,49.76994323730469,0.002955599222332239
3238902.771,634015181,219.74,103153176,0.02311730571091175,-0.16537858545780182,1510,1510,49.78830337524414,0.0038336608558893204
3239002.771,634015181,219.74,103153176,0.03598283603787422,-0.17401698231697083,1510,1510,49.83486557006836,0.0036115304101258516
3239102.771,634015181,219.74,103153177,0.030292663723230362,-0.17369648814201355,1510,1510,49.84352111816406,0.0021430221386253834
3239202.771,634015181,219.74,103153177,0.03659572824835777,-0.1697927713394165,1510,1510,49.865516662597656,0.0011195375118404627
3239302.771,634015181,219.75,103153178,0.026443276554346085,-0.16576717793941498,1510,1510,49.89325714111328,0.0014069495955482125
3239402.771,634015181,219.75,103153178,0.031429603695869446,-0.16162198781967163,1510,1510,49.92499923706055,0.002268113661557436
3239502.771,634015182,219.75,103153179,0.028323132544755936,-0.15642082691192627,1510,1510,49.9376106262207,0.0031579285860061646
3239602.771,634015182,219.75,103153179,0.026743754744529724,-0.16261708736419678,1510,1510,49.96552658081055,0.0027052636723965406
3239702.771,634015181,219.76,103153181,0.03149192035198212,-0.17032429575920105,1510,1510,49.98478698730469,0.0027530372608453035
3239802.771,634015181,219.76,103153181,0.029007960110902786,-0.16378672420978546,1510,1510,50.00960159301758,0.0019394353730604053
3239902.771,634015182,219.75,103153182,0.03333767503499985,-0.1679287701845169,1510,1510,50.05427169799805,0.0016341551672667265
3240002.771,634015182,219.75,103153182,0.03323961794376373,-0.16417789459228516,1510,1510,50.05177688598633,0.001250582979992032
3240102.771,634015182,219.76,103153183,0.02554744854569435,-0.1557626724243164,1510,1510,50.046669006347656,0.0009877374395728111
3240202.771,634015182,219.76,103153183,0.024993695318698883,-0.16100594401359558,1510,1510,50.06752395629883,0.002122823614627123
3240302.771,634015183,219.75,103153184,0.021671084687113762,-0.1704150140285492,1510,1510,50.07502746582031,0.0035388637334108353
3240402.771,634015183,219.75,103153184,0.03992181271314621,-0.1762787103652954,1510,1510,50.075687408447266,0.0036325855180621147
3240502.771,634015183,219.75,103153184,0.03540104627609253,-0.1686144769191742,1510,1510,50.092098236083984,0.0014398266794160008
3240602.771,634015183,219.75,103153184,0.028889412060379982,-0.15925990045070648,1510,1510,50.10682678222656,-0.0002054043288808316
3240702.771,634015183,219.76,103153185,0.020534202456474304,-0.16017234325408936,1510,1510,50.112266540527344,0.000047593919589417055
3240802.771,634015183,219.75,103153186,0.013087688945233822,-0.16410253942012787,1510,1510,50.110015869140625,0.0013789269141852856
3240902.771,634015183,219.75,103153186,0.02378583699464798,-0.17135711014270782,1510,1510,50.124359130859375,0.0028391589876264334
3241002.771,634015183,219.76,103153188,0.030241917818784714,-0.16746239364147186,1510,1510,50.171897888183594,0.0035811022389680147
3241102.771,634015183,219.76,103153188,0.03633739426732063,-0.17442867159843445,1510,1510,50.18401336669922,0.0027518344577401876
3241202.771,634015183,219.76,103153188,-0.015260874293744564,-0.14860233664512634,1534,1484,50.17507553100586,0.0018554872367531061
3241302.771,634015183,219.76,103153188,-0.08620920032262802,-0.18620091676712036,1559,1458,50.17251968383789,0.002664311323314905
3241402.771,634015183,219.76,103153188,-0.21915559470653534,-0.1723359227180481,1597,1419,50.156673431396484,0.0006831550854258239
3241502.771,634015183,219.76,103153188,-0.6603916883468628,-0.12372847646474838,1653,1360,50.19346618652344,0.001118760439567268
3241602.771,634015183,219.76,103153188,-1.5409654378890991,-0.20589303970336914,1697,1314,50.241485595703125,0.00870242528617382
3241702.771,634015181,219.76,103153180,-1.9345883131027222,-0.19761261343955994,1709,1301,50.21839141845703,0.002455035923048854
3241802.771,634015181,219.76,103153180,-2.0240769386291504,-0.16085469722747803,1722,1287,50.14584732055664,-0.006729910150170326
3241902.771,634015175,219.76,103153161,-1.9667352437973022,-0.1550387740135193,1722,1287,50.057003021240234,-0.010349595919251442
3242002.771,634015175,219.76,103153161,-1.726353406906128,-0.17574821412563324,1722,1287,49.9638786315918,-0.008485080674290657
3242102.771,634015167,219.77,103153135,-1.4689505100250244,-0.19833967089653015,1722,1287,49.89068603515625,-0.0038095253985375166
3242202.771,634015167,219.77,103153135,-1.199087142944336,-0.15736767649650574,1722,1287,49.85067367553711,0.0024986884091049433
3242302.771,634015156,219.76,103153102,-1.0272300243377686,-0.17740820348262787,1722,1287,49.8571662902832,0.007528546266257763
3242402.771,634015144,219.76,103153065,-0.9930672645568848,-0.14832007884979248,1722,1287,49.90176010131836,0.012475498951971531
3242502.771,634015144,219.76,103153065,-0.9676467776298523,-0.1745927333831787,1722,1287,49.94357681274414,0.017401298508048058
3242602.771,634015144,219.76,103153065,-0.913127064704895,-0.16034655272960663,1722,1287,49.99021911621094,0.013769514858722687
3242702.771,634015131,219.76,103153023,-0.8291714191436768,-0.14824709296226501,1722,1287,49.989288330078125,0.007954483851790428
3242802.771,634015117,219.76,103152978,-0.7148539423942566,-0.09936979413032532,1728,1281,49.95469665527344,0.005448727402836084
3242902.771,634015117,219.76,103152978,-0.6779378056526184,-0.15365533530712128,1728,1281,49.90331268310547,0.004107508808374405
3243002.771,634015103,219.76,103152933,-0.645625650882721,-0.1478511542081833,1728,1281,49.8851432800293,0.0024380425456911325
3243102.771,634015103,219.76,103152933,-0.6264904737472534,-0.16481634974479675,1728,1281,49.86614990234375,0.003293363843113184
3243202.771,634015088,219.77,103152885,-0.5828043222427368,-0.12431950867176056,1728,1281,49.824501037597656,0.004558149259537458
3243302.771,634015088,219.77,103152885,-0.6136326789855957,-0.1451161801815033,1728,1281,49.7985954284668,0.0069272201508283615
3243402.771,634015073,219.77,103152835,-0.5406795144081116,-0.16545477509498596,1728,1281,49.807613372802734,0.010372160002589226
3243502.771,634015073,219.77,103152835,-0.4920635223388672,-0.14575648307800293,1728,1281,49.86058807373047,0.015019325539469719
3243602.771,634015073,219.77,103152835,-0.4573294222354889,-0.19042345881462097,1728,1281,49.95478057861328,0.019943172112107277
3243702.771,634015057,219.77,103152785,-0.4353148341178894,-0.23694325983524323,1722,1287,50.02174377441406,0.02288263477385044
3243802.771,634015041,219.77,103152734,-0.4427470862865448,-0.1762186884880066,1722,1287,50.08381652832031,0.023165401071310043
3243902.771,634015041,219.77,103152734,-0.3369511067867279,-0.20313282310962677,1722,1287,50.157196044921875,0.023502707481384277
3244002.771,634015041,219.77,103152734,-0.32972386479377747,-0.1953698992729187,1722,1287,50.23957061767578,0.022686857730150223
3244102.771,634015026,219.78,103152684,-0.35584890842437744,-0.22136758267879486,1722,1287,50.33510971069336,0.02361348457634449
3244202.771,634015026,219.78,103152684,-0.3421631455421448,-0.18523670732975006,1722,1287,50.42589569091797,0.02533813752233982
3244302.771,634015011,219.78,103152633,-0.35181987285614014,-0.2017298936843872,1722,1287,50.54764175415039,0.026031572371721268
3244402.771,634015011,219.78,103152633,-0.3825961947441101,-0.2086050659418106,1722,1287,50.65019607543945,0.02445930615067482
3244502.771,634014995,219.78,103152581,-0.3295132517814636,-0.22454482316970825,1722,1287,50.7399787902832,0.02373664639890194
3244602.771,634014995,219.78,103152581,-0.3399938642978668,-0.19642892479896545,1722,1287,50.79170608520508,0.020800119265913963
3244702.771,634014980,219.79,103152530,-0.3556077480316162,-0.2047848105430603,1722,1287,50.822265625,0.01596091315150261
3244802.771,634014965,219.79,103152480,-0.34399276971817017,-0.1834341585636139,1722,1287,50.84978485107422,0.01687176153063774
3244902.771,634014965,219.79,103152480,-0.3454459309577942,-0.1489497274160385,1722,1287,50.898536682128906,0.016238052397966385
3245002.771,634014951,219.79,103152428,-0.36061903834342957,-0.19325166940689087,1722,1287,50.950008392333984,0.01679663360118866
3245102.771,634014951,219.79,103152428,-0.3884240388870239,-0.18710964918136597,1722,1287,51.010650634765625,0.016826696693897247
3245202.771,634014935,219.79,103152377,-0.32882577180862427,-0.20021893084049225,1722,1287,51.07219314575195,0.01766223832964897
3245302.771,634014935,219.79,103152377,-0.3975489139556885,-0.20469370484352112,1722,1287,51.14260482788086,0.017679976299405098
3245402.771,634014921,219.79,103152325,-0.3106847405433655,-0.1614648699760437,1722,1287,51.21305847167969,0.017856761813163757
3245502.771,634014921,219.79,103152325,-0.3570196032524109,-0.17761874198913574,1722,1287,51.26382827758789,0.01733388379216194
3245602.771,634014921,219.79,103152325,-0.3491686284542084,-0.17750751972198486,1722,1287,51.341556549072266,0.01863797754049301
3245702.771,634014907,219.81,103152274,-0.26823535561561584,-0.18448731303215027,1715,1294,51.41271209716797,0.01663397066295147
3245802.771,634014907,219.81,103152274,-0.3018859624862671,-0.20429310202598572,1715,1294,51.505802154541016,0.01608067750930786
3245902.771,634014892,219.8,103152223,-0.27372151613235474,-0.1717396080493927,1715,1294,51.59284973144531,0.017340654507279396
3246002.771,634014892,219.8,103152223,-0.29665154218673706,-0.2109416127204895,1715,1294,51.671695709228516,0.018623199313879013
3246102.771,634014878,219.8,103152170,-0.24871468544006348,-0.19580049812793732,1715,1294,51.72675323486328,0.01658332347869873
3246202.771,634014878,219.8,103152170,-0.2869107127189636,-0.15188860893249512,1715,1294,51.79576873779297,0.016252338886260986
3246302.771,634014864,219.8,103152119,-0.2649294137954712,-0.20785298943519592,1715,1294,51.86268997192383,0.016602277755737305
3246402.771,634014864,219.8,103152119,-0.3170010447502136,-0.18014611303806305,1715,1294,51.94259262084961,0.017702562734484673
3246502.771,634014850,219.81,103152067,-0.29414328932762146,-0.1661234050989151,1715,1294,52.03340148925781,0.018119316548109055
3246602.771,634014850,219.81,103152067,-0.2594935894012451,-0.21589039266109467,1715,1294,52.114723205566406,0.019088352099061012
3246702.771,634014836,219.81,103152016,-0.3274935781955719,-0.18038013577461243,1715,1294,52.19187545776367,0.020867444574832916
3246802.771,634014836,219.81,103152016,-0.2491072565317154,-0.17655129730701447,1715,1294,52.29326248168945,0.022104412317276
3246902.771,634014822,219.82,103151965,-0.3316693902015686,-0.19104242324829102,1715,1294,52.38942337036133,0.020470069721341133
3247002.771,634014822,219.82,103151965,-0.22922205924987793,-0.21780042350292206,1715,1294,52.49805450439453,0.02160707302391529
3247102.771,634014808,219.82,103151912,-0.2987678647041321,-0.15648114681243896,1715,1294,52.58440399169922,0.018773311749100685
3247202.771,634014808,219.82,103151912,-0.3411812484264374,-0.2136285901069641,1715,1294,52.68999099731445,0.017904262989759445
3247302.771,634014794,219.81,103151860,-0.23069903254508972,-0.18535155057907104,1715,1294,52.823951721191406,0.02130465768277645
3247402.771,634014781,219.81,103151808,-0.2771981954574585,-0.1818043291568756,1715,1294,52.92130661010742,0.021159587427973747
3247502.771,634014781,219.81,103151808,-0.28813332319259644,-0.22535260021686554,1715,1294,52.994728088378906,0.019723035395145416
3247602.771,634014781,219.81,103151808,-0.2715625464916229,-0.16944263875484467,1715,1294,53.094703674316406,0.01998516544699669
3247702.771,634014767,219.83,103151756,-0.25349339842796326,-0.18691368401050568,1715,1294,53.18183135986328,0.01890222355723381
3247802.771,634014754,219.82,103151703,-0.2730334997177124,-0.21520021557807922,1715,1294,53.22964859008789,0.014800173230469227
3247902.771,634014754,219.82,103151703,-0.3100762963294983,-0.1786164939403534,1715,1294,53.29174041748047,0.014291438274085522
3248002.771,634014754,219.82,103151703,-0.22270867228507996,-0.19563578069210052,1715,1294,53.358455657958984,0.01648980751633644
3248102.771,634014741,219.82,103151651,-0.2900955379009247,-0.17989440262317657,1715,1294,53.41374588012695,0.014921003952622414
3248202.771,634014727,219.82,103151598,-0.26033815741539,-0.19796481728553772,1715,1294,53.51356506347656,0.01625806838274002
3248302.771,634014727,219.82,103151598,-0.2581859529018402,-0.2009202539920807,1715,1294,53.599266052246094,0.01732620969414711
3248402.771,634014714,219.83,103151545,-0.280315101146698,-0.18832658231258392,1715,1294,53.66761779785156,0.01409594714641571
3248502.771,634014714,219.83,103151545,-0.2765151262283325,-0.18799452483654022,1715,1294,53.72468566894531,0.013756005093455315
3248602.771,634014714,219.83,103151545,-0.292267382144928,-0.20984162390232086,1715,1294,53.783958435058594,0.016332782804965973
3248702.771,634014701,219.82,103151493,-0.24627244472503662,-0.14646978676319122,1715,1294,53.85551071166992,0.017318861559033394
3248802.771,634014701,219.82,103151493,-0.2610141932964325,-0.19464606046676636,1715,1294,53.948097229003906,0.016313184052705765
3248902.771,634014688,219.83,103151440,-0.25238320231437683,-0.23339363932609558,1715,1294,54.03657531738281,0.017489736899733543
3249002.771,634014688,219.83,103151440,-0.2611212134361267,-0.14053212106227875,1715,1294,54.1309814453125,0.01808888651430607
3249102.771,634014676,219.83,103151387,-0.2512683868408203,-0.21422260999679565,1715,1294,54.20935821533203,0.014667857438325882
3249202.771,634014676,219.83,103151387,-0.21900483965873718,-0.2098516970872879,1709,1301,54.27458572387695,0.015504352748394012
3249302.771,634014663,219.84,103151334,-0.21424461901187897,-0.1683083027601242,1709,1301,54.343467712402344,0.016111019998788834
3249402.771,634014663,219.84,103151334,-0.19792023301124573,-0.17298609018325806,1709,1301,54.40397644042969,0.014441423118114471
3249502.771,634014650,219.84,103151281,-0.23250702023506165,-0.1821809858083725,1703,1307,54.4658088684082,0.013798973523080349
3249602.771,634014650,219.84,103151281,0.4930243492126465,-0.19028544425964355,1584,1432,54.556278228759766,0.01620311848819256
3249702.771,634014638,219.85,103151230,0.977316677570343,-0.1734355092048645,1510,1510,54.69095230102539,0.019405817613005638
3249802.771,634014628,219.86,103151187,1.1351386308670044,-0.1893509030342102,1510,1510,54.83097457885742,0.022028734907507896
3249902.771,634014628,219.86,103151187,1.15928053855896,-0.20344847440719604,1510,1510,54.99595642089844,0.02394290268421173
3250002.771,634014619,219.87,103151150,1.1259310245513916,-0.1974649876356125,1510,1510,55.15683364868164,0.02399865724146366
3250102.771,634014619,219.87,103151150,0.9580526351928711,-0.17020490765571594,1510,1510,55.3100471496582,0.02337750419974327
3250202.771,634014611,219.89,103151116,0.803857147693634,-0.18911147117614746,1510,1510,55.4886589050293,0.0250420980155468
3250302.771,634014611,219.89,103151116,0.6860809326171875,-0.17663457989692688,1510,1510,55.691650390625,0.024730132892727852
3250402.771,634014604,219.89,103151082,0.644538402557373,-0.18562810122966766,1510,1510,55.85698699951172,0.024665461853146553
3250502.771,634014604,219.89,103151082,0.6660197973251343,-0.20015427470207214,1510,1510,56.01381301879883,0.024256618693470955
3250602.771,634014604,219.89,103151082,0.7522610425949097,-0.1967870593070984,1510,1510,56.19100570678711,0.023620445281267166
3250702.771,634014597,219.9,103151051,0.7273945212364197,-0.19483628869056702,1510,1510,56.364540100097656,0.022313330322504044
3250802.771,634014597,219.9,103151051,0.6923907399177551,-0.18557141721248627,1510,1510,56.5390510559082,0.0239613875746727
3250902.771,634014590,219.89,103151022,0.5820235013961792,-0.180448517203331,1510,1510,56.732521057128906,0.025320865213871002
3251002.771,634014590,219.89,103151022,0.45639848709106445,-0.191233292222023,1510,1510,56.919715881347656,0.025543678551912308
3251102.771,634014585,219.88,103150995,0.33489471673965454,-0.174485981464386,1510,1510,57.11165237426758,0.026337098330259323
3251202.771,634014585,219.88,103150995,0.2718760371208191,-0.16703400015830994,1510,1510,57.34526062011719,0.02709352783858776
3251302.771,634014579,219.89,103150969,0.21290963888168335,-0.173436239361763,1510,1510,57.57502365112305,0.028486400842666626
3251402.771,634014579,219.89,103150969,0.1994740068912506,-0.1826711893081665,1510,1510,57.79695510864258,0.027466824278235435
3251502.771,634014574,219.89,103150946,0.16567227244377136,-0.17311546206474304,1510,1510,58.023887634277344,0.025383738800883293
3251602.771,634014574,219.89,103150946,0.16705837845802307,-0.1757657378911972,1510,1510,58.20365905761719,0.023201553151011467
3251702.771,634014570,219.89,103150924,0.15624545514583588,-0.17988862097263336,1510,1510,58.35476303100586,0.020460721105337143
3251802.771,634014570,219.89,103150924,0.17635896801948547,-0.18899622559547424,1510,1510,58.49486541748047,0.016919054090976715
3251902.771,634014566,219.89,103150905,0.1975216418504715,-0.18876032531261444,1510,1510,58.63777160644531,0.014199730940163136
3252002.771,634014566,219.89,103150905,0.23540759086608887,-0.1884993612766266,1510,1510,58.7329216003418,0.012649230659008026
3252102.771,634014561,219.9,103150884,0.2760288119316101,-0.19241319596767426,1510,1510,58.83412551879883,0.012821934185922146
3252202.771,634014557,219.91,103150865,0.3206985592842102,-0.18552370369434357,1510,1510,58.972320556640625,0.015523985028266907
3252302.771,634014557,219.91,103150865,0.3419148623943329,-0.18729591369628906,1510,1510,59.105106353759766,0.020496100187301636
3252402.771,634014553,219.91,103150844,0.35678547620773315,-0.16955140233039856,1510,1510,59.31646728515625,0.025553319603204727
3252502.771,634014553,219.91,103150844,0.3319750130176544,-0.16638396680355072,1510,1510,59.53767776489258,0.02887093275785446
3252602.771,634014553,219.91,103150844,0.267828106880188,-0.1669190227985382,1510,1510,59.735050201416016,0.029892446473240852
3252702.771,634014549,219.91,103150826,0.18465960025787354,-0.16551199555397034,1510,1510,59.9637451171875,0.029376251623034477
3252802.771,634014549,219.91,103150826,0.0893091931939125,-0.16277159750461578,1510,1510,60.164695739746094,0.026253338903188705
3252902.771,634014546,219.9,103150809,0.017464134842157364,-0.17042705416679382,1510,1510,60.332763671875,0.020600084215402603
3253002.771,634014546,219.9,103150809,-0.035702336579561234,-0.18058717250823975,1510,1510,60.47190856933594,0.01425373088568449
3253102.771,634014543,219.9,103150793,-0.040386565029621124,-0.173232302069664,1510,1510,60.57575607299805,0.008773840963840485
3253202.771,634014540,219.9,103150778,0.01375655084848404,-0.17463192343711853,1510,1510,60.6652946472168,0.005524933338165283
3253302.771,634014540,219.9,103150778,0.1295848786830902,-0.17930853366851807,1510,1510,60.7412223815918,0.0066289640963077545
3253402.771,634014537,219.91,103150763,0.23917114734649658,-0.18607483804225922,1510,1510,60.84735870361328,0.010338970459997654
3253502.771,634014537,219.91,103150763,0.3071640431880951,-0.17195306718349457,1510,1510,60.967037200927734,0.016133522614836693
3253602.771,634014537,219.91,103150763,0.30190491676330566,-0.17159563302993774,1510,1510,61.125003814697266,0.023041585460305214
3253702.771,634014534,219.91,103150748,0.25640183687210083,-0.1787606030702591,1510,1510,61.3311882019043,0.02838481403887272
3253802.771,634014532,219.91,103150733,0.18925532698631287,-0.17816317081451416,1510,1510,61.513023376464844,0.028378352522850037
3253902.771,634014532,219.91,103150733,0.11810283362865448,-0.1805015653371811,1510,1510,61.66587448120117,0.024931540712714195
3254002.771,634014532,219.91,103150733,0.05496291443705559,-0.16903948783874512,1510,1510,61.794002532958984,0.0208231620490551
3254102.771,634014529,219.92,103150719,0.009775001555681229,-0.16695484519004822,1510,1510,61.91746520996094,0.0171665046364069
3254202.771,634014529,219.92,103150719,-0.0326799713075161,-0.16936255991458893,1510,1510,62.0093994140625,0.0116875059902668
3254302.771,634014526,219.91,103150705,-0.04786338284611702,-0.16008958220481873,1510,1510,62.0892219543457,0.007075992878526449
3254402.771,634014526,219.91,103150705,-0.04758160933852196,-0.15882010757923126,1510,1510,62.149330139160156,0.003683138871565461
3254502.771,634014524,219.92,103150692,0.00711807981133461,-0.16647937893867493,1510,1510,62.202667236328125,0.0028865295462310314
3254602.771,634014524,219.92,103150692,0.09557697176933289,-0.1862122267484665,1510,1510,62.24851608276367,0.0037057327572256327
3254702.771,634014521,219.92,103150680,0.1866857409477234,-0.17616142332553864,1510,1510,62.31654739379883,0.006511036306619644
3254802.771,634014521,219.92,103150680,0.2654971778392792,-0.1783977746963501,1510,1510,62.39532470703125,0.011262035928666592
3254902.771,634014519,219.92,103150666,0.2760546803474426,-0.171808123588562,1510,1510,62.507598876953125,0.01573740318417549
3255002.771,634014517,219.92,103150653,0.22997689247131348,-0.17030075192451477,1510,1510,62.658103942871094,0.019584059715270996
3255102.771,634014517,219.92,103150653,0.13982383906841278,-0.16710060834884644,1510,1510,62.82607650756836,0.020281292498111725
3255202.771,634014514,219.92,103150641,0.04776569455862045,-0.1614961475133896,1510,1510,62.974552154541016,0.0183858722448349
3255302.771,634014514,219.92,103150641,-0.026987748220562935,-0.16937893629074097,1510,1510,63.104454040527344,0.014797139912843704
3255402.771,634014512,219.91,103150628,-0.04803638905286789,-0.1616319864988327,1510,1510,63.208316802978516,0.009365587495267391
3255502.771,634014512,219.91,103150628,-0.062296126037836075,-0.16251102089881897,1510,1510,63.28382873535156,0.004413546994328499
3255602.771,634014512,219.91,103150628,-0.044651858508586884,-0.15557952225208282,1510,1510,63.334590911865234,0.0012841946445405483
3255702.771,634014510,219.92,103150618,-0.004153234418481588,-0.16330218315124512,1510,1510,63.37017059326172,0.0010055594611912966
3255802.771,634014510,219.92,103150618,0.06939341127872467,-0.16819238662719727,1510,1510,63.40562057495117,0.003636064939200878
3255902.771,634014508,219.92,103150606,0.16351553797721863,-0.17871803045272827,1510,1510,63.48375701904297,0.007793063763529062
3256002.771,634014508,219.92,103150606,0.24363262951374054,-0.18183889985084534,1510,1510,63.6097526550293,0.01318613812327385
3256102.771,634014506,219.92,103150594,0.26735544204711914,-0.17795071005821228,1510,1510,63.75027084350586,0.017639081925153732
3256202.771,634014506,219.92,103150594,0.23303388059139252,-0.17388340830802917,1510,1510,63.90613555908203,0.020896511152386665
3256302.771,634014504,219.92,103150583,0.14896398782730103,-0.16688503324985504,1510,1510,64.0655517578125,0.021693967282772064
3256402.771,634014504,219.92,103150583,0.03609209880232811,-0.1701057106256485,1510,1510,64.2312240600586,0.019186705350875854
3256502.771,634014502,219.91,103150572,-0.04629560932517052,-0.15378598868846893,1510,1510,64.34519958496094,0.01381734013557434
3256602.771,634014502,219.91,103150572,-0.09135477244853973,-0.15610000491142273,1510,1510,64.43999481201172,0.008548579178750515
3256702.771,634014500,219.91,103150561,-0.08903312683105469,-0.1572342962026596,1510,1510,64.49285888671875,0.004063736647367477
3256802.771,634014500,219.91,103150561,-0.05765319988131523,-0.159158855676651,1510,1510,64.5313720703125,0.0005824007093906403
3256902.771,634014498,219.91,103150551,0.009877682663500309,-0.1627751588821411,1510,1510,64.5625991821289,0.00034126080572605133
3257002.771,634014498,219.91,103150551,0.103201724588871,-0.17334423959255219,1510,1510,64.59375,0.003600738011300564
3257102.771,634014497,219.92,103150541,0.1945003718137741,-0.17954657971858978,1510,1510,64.64644622802734,0.00900164246559143
3257202.771,634014497,219.92,103150541,0.2527104616165161,-0.18413613736629486,1510,1510,64.74945068359375,0.014977782033383846
3257302.771,634014495,219.91,103150531,0.2526240944862366,-0.1876116693019867,1510,1510,64.87177276611328,0.019835196435451508
3257402.771,634014493,219.91,103150520,0.20003879070281982,-0.18686583638191223,1510,1510,65.01026916503906,0.02170264534652233
3257502.771,634014493,219.91,103150520,0.10679607093334198,-0.18872152268886566,1510,1510,65.17316436767578,0.020387722179293633
3257602.771,634014493,219.91,103150520,0.0031055696308612823,-0.16799385845661163,1510,1510,65.32308959960938,0.016587872058153152
3257702.771,634014492,219.9,103150510,-0.07394223660230637,-0.1562022566795349,1510,1510,65.41867065429688,0.010855592787265778
3257802.771,634014490,219.89,103150500,-0.10765638947486877,-0.14266547560691833,1510,1510,65.47500610351562,0.005244449712336063
3257902.771,634014490,219.89,103150500,-0.09671487659215927,-0.14584031701087952,1510,1510,65.5202865600586,0.0014603885356336832
3258002.771,634014490,219.89,103150500,-0.047735169529914856,-0.15532907843589783,1510,1510,65.5404052734375,-0.0004647189925890416
3258102.771,634014488,219.89,103150491,0.03781600669026375,-0.16592447459697723,1510,1510,65.55104064941406,0.0009157396270893514
3258202.771,634014486,219.89,103150480,0.12700922787189484,-0.1781085729598999,1510,1510,65.58988952636719,0.004550933837890625
3258302.771,634014486,219.89,103150480,0.2113695740699768,-0.18278813362121582,1510,1510,65.63946533203125,0.009805109351873398
3258402.771,634014485,219.89,103150471,0.24369612336158752,-0.182473286986351,1510,1510,65.7367172241211,0.01585720106959343
3258502.771,634014485,219.89,103150471,0.2261475920677185,-0.19085142016410828,1510,1510,65.87785339355469,0.02007821574807167
3258602.771,634014485,219.89,103150471,0.1559908092021942,-0.1857157200574875,1510,1510,66.04109191894531,0.0216703861951828
3258702.771,634014484,219.89,103150460,0.06024140119552612,-0.16928672790527344,1510,1510,66.19962310791016,0.01961057260632515
3258802.771,634014484,219.89,103150460,-0.018796954303979874,-0.1647363156080246,1510,1510,66.31793975830078,0.015008870512247086
3258902.771,634014482,219.88,103150451,-0.08092112094163895,-0.15054607391357422,1510,1510,66.408447265625,0.009169704280793667
3259002.771,634014482,219.88,103150451,-0.10326908528804779,-0.14098979532718658,1510,1510,66.45018768310547,0.0032796012237668037
3259102.771,634014481,219.87,103150442,-0.0882563441991806,-0.1493750512599945,1510,1510,66.4651870727539,-0.0003790442133322358
3259202.771,634014481,219.87,103150442,-0.03306378051638603,-0.15826193988323212,1510,1510,66.4808349609375,-0.0006676766206510365
3259302.771,634014480,219.87,103150434,0.057129718363285065,-0.16323816776275635,1510,1510,66.49349975585938,0.001771621755324304
3259402.771,634014480,219.87,103150434,0.15766660869121552,-0.17543873190879822,1510,1510,66.5159683227539,0.006989568006247282
3259502.771,634014478,219.88,103150425,0.21879401803016663,-0.18918806314468384,1510,1510,66.62382507324219,0.013248719274997711
3259602.771,634014478,219.88,103150425,0.23082298040390015,-0.183941051363945,1510,1510,66.74606323242188,0.017959941178560257
3259702.771,634014477,219.89,103150417,0.19054657220840454,-0.19227798283100128,1510,1510,66.87488555908203,0.02003694325685501
3259802.771,634014477,219.89,103150417,0.10488631576299667,-0.17989131808280945,1510,1510,66.97492218017578,0.019099604338407516
3259902.771,634014475,219.89,103150409,0.01393332239240408,-0.16455145180225372,1510,1510,67.10317993164062,0.016360200941562653
3260002.771,634014475,219.89,103150409,-0.06318238377571106,-0.15670812129974365,1510,1510,67.20166015625,0.012117828242480755
3260102.771,634014474,219.88,103150400,-0.10309815406799316,-0.14763012528419495,1510,1510,67.25643157958984,0.007047642488032579
3260202.771,634014474,219.88,103150400,-0.08687745779752731,-0.14095363020896912,1510,1510,67.27545166015625,0.0024636765010654926
3260302.771,634014473,219.87,103150392,-0.0373060368001461,-0.15103115141391754,1510,1510,67.29354095458984,-0.000029317872758838348
3260402.771,634014473,219.87,103150392,0.039593860507011414,-0.15953345596790314,1510,1510,67.31340789794922,0.00041026645340025425
3260502.771,634014471,219.88,103150385,0.11626161634922028,-0.16269877552986145,1510,1510,67.3365707397461,0.004515229724347591
3260602.771,634014471,219.88,103150385,0.17507794499397278,-0.17474225163459778,1510,1510,67.37535858154297,0.010303013026714325
3260702.771,634014470,219.87,103150376,0.19909197092056274,-0.1890595555305481,1510,1510,67.46040344238281,0.015819817781448364
3260802.771,634014470,219.87,103150376,0.17484919726848602,-0.19433476030826569,1510,1510,67.59321594238281,0.019073832780122757
3260902.771,634014469,219.87,103150369,0.11666540801525116,-0.19003567099571228,1510,1510,67.70304107666016,0.01869315840303898
3261002.771,634014469,219.87,103150369,0.04216931760311127,-0.18248523771762848,1510,1510,67.81573486328125,0.016393329948186874
3261102.771,634014468,219.88,103150361,-0.040146514773368835,-0.16732797026634216,1510,1510,67.92621612548828,0.012319257482886314
3261202.771,634014468,219.88,103150361,-0.08789332211017609,-0.14924994111061096,1510,1510,68.0340347290039,0.007555988151580095
3261302.771,634014467,219.87,103150353,-0.08061947673559189,-0.1414964199066162,1510,1510,68.09796905517578,0.004079894628375769
3261402.771,634014467,219.87,103150353,-0.03546309843659401,-0.1431090086698532,1510,1510,68.14729309082031,0.0020797355100512505
3261502.771,634014465,219.86,103150346,0.032262735068798065,-0.15157708525657654,1510,1510,68.15776062011719,0.0017172105144709349
3261602.771,634014465,219.86,103150346,0.09668512642383575,-0.15272650122642517,1510,1510,68.19371795654297,0.004442963749170303
3261702.771,634014464,219.87,103150340,0.137121319770813,-0.17257653176784515,1510,1510,68.2680892944336,0.008975865319371223
3261802.771,634014464,219.87,103150340,0.16345439851284027,-0.19007423520088196,1510,1510,68.35675048828125,0.013588226400315762
3261902.771,634014464,219.87,103150333,0.1606125384569168,-0.19144415855407715,1510,1510,68.48640441894531,0.01644870452582836
3262002.771,634014464,219.87,103150333,0.10778286308050156,-0.19567793607711792,1510,1510,68.60591125488281,0.017938004806637764
3262102.771,634014463,219.86,103150326,0.0397341325879097,-0.18234193325042725,1510,1510,68.70442199707031,0.01672840490937233
3262202.771,634014463,219.86,103150326,-0.03574148565530777,-0.16816216707229614,1510,1510,68.77277374267578,0.013416052795946598
3262302.771,634014462,219.85,103150319,-0.06956303864717484,-0.1562563180923462,1510,1510,68.8275146484375,0.009031028486788273
3262402.771,634014462,219.85,103150319,-0.06388307362794876,-0.14414335787296295,1510,1510,68.88226318359375,0.00576137937605381
3262502.771,634014461,219.85,103150313,-0.016911324113607407,-0.1458210051059723,1510,1510,68.90253448486328,0.003795122727751732
3262602.771,634014461,219.85,103150313,0.04728614538908005,-0.14790447056293488,1510,1510,68.91249084472656,0.003834791947156191
3262702.771,634014460,219.85,103150305,0.09186270087957382,-0.16701386868953705,1510,1510,68.94792175292969,0.006265668198466301
3262802.771,634014460,219.85,103150305,0.1205628365278244,-0.18088780343532562,1510,1510,68.98255920410156,0.010430531576275826
3262902.771,634014459,219.84,103150298,0.12954536080360413,-0.18590962886810303,1510,1510,69.08985900878906,0.014665932394564152
3263002.771,634014459,219.84,103150298,0.12540318071842194,-0.1876499354839325,1510,1510,69.21824645996094,0.017313087359070778
3263102.771,634014459,219.84,103150291,0.09093023091554642,-0.18231265246868134,1510,1510,69.32728576660156,0.01805303245782852
3263202.771,634014458,219.83,103150284,0.03454751521348953,-0.18123196065425873,1510,1510,69.44940185546875,0.01632646843791008
3263302.771,634014458,219.83,103150284,-0.024882929399609566,-0.16636821627616882,1510,1510,69.5361328125,0.013212434947490692
3263402.771,634014458,219.83,103150284,-0.05373809486627579,-0.15772908926010132,1510,1510,69.62865447998047,0.009288211353123188
3263502.771,634014457,219.82,103150276,-0.05053430795669556,-0.14258256554603577,1510,1510,69.68428039550781,0.006306183058768511
3263602.771,634014457,219.82,103150276,-0.0057050921022892,-0.14846159517765045,1510,1510,69.7048568725586,0.005149426870048046
3263702.771,634014456,219.81,103150269,0.05471505969762802,-0.15179215371608734,1510,1510,69.77581024169922,0.006926502101123333
3263802.771,634014456,219.81,103150269,0.1032237857580185,-0.17409303784370422,1510,1510,69.8454360961914,0.009750342927873135
3263902.771,634014455,219.81,103150262,0.127936452627182,-0.17888113856315613,1510,1510,69.9426040649414,0.013251992873847485
3264002.771,634014455,219.81,103150262,0.12089766561985016,-0.1883774995803833,1510,1510,70.04937744140625,0.015545991249382496
3264102.771,634014455,219.8,103150255,0.09354467689990997,-0.19627396762371063,1510,1510,70.169677734375,0.01647523045539856
3264202.771,634014455,219.8,103150255,0.05255623161792755,-0.18092390894889832,1510,1510,70.28276824951172,0.015638208016753197
3264302.771,634014454,219.79,103150247,-0.004454927518963814,-0.16783034801483154,1510,1510,70.38778686523438,0.014193430542945862
3264402.771,634014454,219.79,103150247,-0.04376797378063202,-0.1480560451745987,1510,1510,70.46040344238281,0.010903261601924896
3264502.771,634014454,219.79,103150241,-0.04683505371212959,-0.15180236101150513,1510,1510,70.5341796875,0.008278219029307365
3264602.771,634014454,219.79,103150241,-0.0045830365270376205,-0.1455175131559372,1510,1510,70.59256744384766,0.006442648358643055
3264702.771,634014453,219.78,103150234,0.05547335743904114,-0.16131871938705444,1510,1510,70.6513900756836,0.007363121025264263
3264802.771,634014453,219.78,103150234,0.10104310512542725,-0.16919927299022675,1510,1510,70.73348236083984,0.008963942527770996
3264902.771,634014452,219.78,103150227,0.11203326284885406,-0.18081168830394745,1510,1510,70.80701446533203,0.011321919970214367
3265002.771,634014452,219.78,103150227,0.09809333086013794,-0.18350178003311157,1510,1510,70.8948974609375,0.014164760708808899
3265102.771,634014451,219.78,103150220,0.07868745177984238,-0.18197539448738098,1510,1510,71.00276184082031,0.017097022384405136
3265202.771,634014451,219.78,103150220,0.040447913110256195,-0.17423981428146362,1510,1510,71.14944458007812,0.01736445724964142
3265302.771,634014451,219.78,103150213,0.01839027926325798,-0.16787518560886383,1510,1510,71.27310180664062,0.014922352507710457
3265402.771,634014451,219.78,103150213,-0.015360835939645767,-0.1600387990474701,1510,1510,71.36834716796875,0.010533122345805168
3265502.771,634014450,219.78,103150207,-0.03120119869709015,-0.15655243396759033,1510,1510,71.4283218383789,0.008039846085011959
3265602.771,634014450,219.78,103150207,-0.011767824180424213,-0.15621650218963623,1510,1510,71.48475646972656,0.007283104583621025
3265702.771,634014449,219.78,103150200,0.03383383899927139,-0.15836255252361298,1510,1510,71.54337310791016,0.00871448777616024
3265802.771,634014449,219.78,103150200,0.08171389997005463,-0.1659720540046692,1510,1510,71.61811828613281,0.01085613202303648
3265902.771,634014449,219.78,103150193,0.10570532083511353,-0.17175732553005219,1510,1510,71.6668930053711,0.012617047876119614
3266002.771,634014449,219.78,103150193,0.10080768167972565,-0.18145491182804108,1510,1510,71.75655364990234,0.01454893872141838
3266102.771,634014448,219.78,103150186,0.06593726575374603,-0.17814236879348755,1510,1510,71.84909057617188,0.016227498650550842
3266202.771,634014448,219.78,103150186,0.03135489299893379,-0.18121300637722015,1510,1510,71.9585189819336,0.015574165619909763
3266302.771,634014448,219.79,103150178,-0.00040642719250172377,-0.17148955166339874,1510,1510,72.02103424072266,0.013251356780529022
3266402.771,634014448,219.79,103150178,-0.01491624303162098,-0.15828269720077515,1510,1510,72.10456848144531,0.009163943119347095
3266502.771,634014447,219.8,103150171,-0.008739576674997807,-0.14877483248710632,1510,1510,72.1903305053711,0.007779606617987156
3266602.771,634014447,219.8,103150171,0.01061774417757988,-0.15125267207622528,1510,1510,72.25765228271484,0.008966518566012383
3266702.771,634014447,219.8,103150164,0.05259844288229942,-0.15661494433879852,1510,1510,72.32193756103516,0.010742142796516418
3266802.771,634014447,219.8,103150164,0.08490430563688278,-0.16807305812835693,1510,1510,72.4072494506836,0.01217721402645111
3266902.771,634014446,219.8,103150157,0.09457546472549438,-0.1874733865261078,1510,1510,72.48655700683594,0.012990640476346016
3267002.771,634014446,219.8,103150157,0.08508442342281342,-0.1884269118309021,1510,1510,72.5649642944336,0.014252029359340668
3267102.771,634014446,219.81,103150150,0.05894620344042778,-0.18568339943885803,1510,1510,72.66925048828125,0.014850305393338203
3267202.771,634014446,219.81,103150150,0.020481975749135017,-0.17112568020820618,1510,1510,72.79984283447266,0.013559173792600632
3267302.771,634014445,219.82,103150145,-0.01176410261541605,-0.15943080186843872,1510,1510,72.91445922851562,0.01107882522046566
3267402.771,634014445,219.82,103150145,-0.0215267576277256,-0.15469864010810852,1510,1510,72.987060546875,0.010581481270492077
3267502.771,634014445,219.82,103150139,0.006099893245846033,-0.16388583183288574,1510,1510,73.1044921875,0.011530790477991104
3267602.771,634014445,219.82,103150139,0.042642742395401,-0.1576870083808899,1510,1510,73.17867279052734,0.012110566720366478
3267702.771,634014444,219.83,103150133,0.07385046780109406,-0.16605466604232788,1510,1510,73.24264526367188,0.010744322091341019
3267802.771,634014444,219.83,103150133,0.07339135557413101,-0.17776738107204437,1510,1510,73.34242248535156,0.010622790083289146
3267902.771,634014444,219.83,103150127,0.06780675798654556,-0.1734175682067871,1510,1510,73.44294738769531,0.012310083024203777
3268002.771,634014443,219.83,103150122,0.053019724786281586,-0.1765499860048294,1510,1510,73.56670379638672,0.015039344318211079
3268102.771,634014443,219.83,103150122,0.04279806837439537,-0.17550958693027496,1510,1510,73.69821166992188,0.01670045405626297
3268202.771,634014443,219.84,103150116,0.02092023380100727,-0.16904467344284058,1510,1510,73.78437805175781,0.014906750991940498
3268302.771,634014443,219.84,103150116,0.009547133930027485,-0.15215492248535156,1510,1510,73.86145782470703,0.011813445948064327
3268402.771,634014443,219.84,103150110,-0.0015961765311658382,-0.16402816772460938,1510,1510,73.95106506347656,0.010436377488076687
3268502.771,634014443,219.84,103150110,0.02046017348766327,-0.15875406563282013,1510,1510,74.01802825927734,0.010201523080468178
3268602.771,634014443,219.84,103150110,0.04192613810300827,-0.16332577168941498,1510,1510,74.06460571289062,0.010971872135996819
3268702.771,634014441,219.84,103150105,0.0643111914396286,-0.17340904474258423,1510,1510,74.13802337646484,0.012028496712446213
3268802.771,634014441,219.84,103150105,0.06469282507896423,-0.1792246699333191,1510,1510,74.23987579345703,0.01382378302514553
3268902.771,634014441,219.85,103150099,0.0690784603357315,-0.17203289270401,1510,1510,74.38963317871094,0.016185639426112175
3269002.771,634014441,219.85,103150099,0.04737401381134987,-0.17269614338874817,1510,1510,74.54142761230469,0.016860364004969597
3269102.771,634014441,219.85,103150094,0.0273468978703022,-0.16907334327697754,1510,1510,74.65644836425781,0.01485222578048706
3269202.771,634014441,219.85,103150094,0.0056606559082865715,-0.1666269749403,1510,1510,74.74767303466797,0.011506795883178711
3269302.771,634014440,219.86,103150088,-0.0014452964533120394,-0.15937761962413788,1510,1510,74.82098388671875,0.00987424235790968
3269402.771,634014440,219.86,103150088,0.011556195095181465,-0.159441277384758,1510,1510,74.88545227050781,0.010905643925070763
3269502.771,634014440,219.86,103150084,0.03556470945477486,-0.16134315729141235,1510,1510,74.97533416748047,0.012806003913283348
3269602.771,634014440,219.86,103150084,0.05892081558704376,-0.16664086282253265,1510,1510,75.09912872314453,0.013974194414913654
3269702.771,634014439,219.88,103150078,0.07868827879428864,-0.17254051566123962,1510,1510,75.21729278564453,0.015679065138101578
3269802.771,634014439,219.88,103150078,0.06968199461698532,-0.17625859379768372,1510,1510,75.33887481689453,0.016247358173131943
3269902.771,634014439,219.88,103150073,0.05279913544654846,-0.17808623611927032,1510,1510,75.46715545654297,0.015453820116817951
3270002.771,634014439,219.88,103150073,0.025137703865766525,-0.1736547201871872,1510,1510,75.59782409667969,0.01415682677179575
3270102.771,634014439,219.88,103150068,-0.001056258101016283,-0.15866975486278534,1510,1510,75.70750427246094,0.012476700358092785
3270202.771,634014438,219.89,103150062,-0.012830279767513275,-0.15935328602790833,1510,1510,75.79475402832031,0.012247394770383835
3270302.771,634014438,219.89,103150062,0.013112840242683887,-0.16005760431289673,1510,1510,75.87728881835938,0.01290358230471611
3270402.771,634014438,219.88,103150057,0.04515765607357025,-0.16942128539085388,1510,1510,75.96034240722656,0.014319468289613724
3270502.771,634014438,219.88,103150057,0.06423396617174149,-0.16734081506729126,1510,1510,76.07865142822266,0.015364110469818115
3270602.771,634014438,219.88,103150057,0.07193843275308609,-0.17077627778053284,1510,1510,76.1992416381836,0.015331353060901165
3270702.771,634014437,219.89,103150052,0.059747692197561264,-0.17523381114006042,1510,1510,76.31973266601562,0.014760891906917095
3270802.771,634014437,219.89,103150052,0.03616798669099808,-0.17404118180274963,1510,1510,76.45170593261719,0.014781991019845009
3270902.771,634014437,219.89,103150046,0.01265270821750164,-0.16877809166908264,1510,1510,76.5736312866211,0.014798122458159924
3271002.771,634014437,219.89,103150046,0.002935212105512619,-0.16379588842391968,1510,1510,76.67887878417969,0.015101353637874126
3271102.771,634014436,219.9,103150042,0.006240305490791798,-0.16734842956066132,1510,1510,76.81273651123047,0.014876564964652061
3271202.771,634014436,219.9,103150042,0.024318061769008636,-0.1695723682641983,1510,1510,76.9339370727539,0.014462415128946304
3271302.771,634014436,219.91,103150036,0.049689166247844696,-0.16738788783550262,1510,1510,77.03182983398438,0.01414317823946476
3271402.771,634014436,219.91,103150036,0.06520182639360428,-0.17310026288032532,1510,1510,77.13670349121094,0.01447264663875103
3271502.771,634014435,219.91,103150031,0.06292011588811874,-0.16897766292095184,1510,1510,77.26274108886719,0.015048306435346603
3271602.771,634014435,219.91,103150031,0.04412613436579704,-0.16125398874282837,1510,1510,77.42853546142578,0.01654459908604622
3271702.771,634014435,219.92,103150026,0.028416667133569717,-0.1673010289669037,1510,1510,77.57886505126953,0.0175229012966156
3271802.771,634014435,219.92,103150026,0.01477176882326603,-0.17369262874126434,1510,1510,77.70684051513672,0.01620522141456604
3271902.771,634014435,219.92,103150022,0.01714901439845562,-0.1632978767156601,1510,1510,77.83695220947266,0.01462589018046856
3272002.771,634014435,219.92,103150022,0.01929909735918045,-0.16637103259563446,1510,1510,77.949951171875,0.01394911203533411
3272102.771,634014434,219.92,103150016,0.034409940242767334,-0.1669802963733673,1510,1510,78.05949401855469,0.014380864799022675
3272202.771,634014434,219.93,103150011,0.05573790520429611,-0.17199814319610596,1510,1510,78.14404296875,0.015123418532311916
3272302.771,634014434,219.93,103150011,0.05857061967253685,-0.17039541900157928,1510,1510,78.19972229003906,0.01624402590095997
3272402.771,634014434,219.93,103150011,0.057349443435668945,-0.16864171624183655,1510,1510,78.27446746826172,0.01760328933596611
3272502.771,634014434,219.93,103150007,0.03998572751879692,-0.15871059894561768,1510,1510,78.35095977783203,0.018235880881547928
3272602.771,634014434,219.93,103150007,0.023297466337680817,-0.16659051179885864,1510,1510,78.42750549316406,0.017103029415011406
3272702.771,634014434,219.93,103150002,0.017609382048249245,-0.17719778418540955,1510,1510,78.51760864257812,0.01554991863667965
3272802.771,634014433,219.94,103149997,0.019260348752141,-0.17020852863788605,1510,1510,78.61184692382812,0.013994947075843811
3272902.771,634014433,219.94,103149997,0.02532028779387474,-0.16747017204761505,1510,1510,78.71726989746094,0.014501450583338737
3273002.771,634014432,219.94,103149992,0.04293541982769966,-0.16224509477615356,1510,1510,78.8117446899414,0.01641952246427536
3273102.771,634014432,219.94,103149992,0.050622984766960144,-0.16762465238571167,1510,1510,78.89002227783203,0.01827407069504261
3273202.771,634014432,219.95,103149988,0.047839418053627014,-0.17067189514636993,1510,1510,78.96800231933594,0.0184511449187994
3273302.771,634014432,219.95,103149988,0.04330451786518097,-0.16742700338363647,1510,1510,79.0387191772461,0.01761261746287346
3273402.771,634014432,219.95,103149983,0.02673555165529251,-0.17346727848052979,1510,1510,79.1094741821289,0.016075368970632553
3273502.771,634014432,219.95,103149983,0.02225789614021778,-0.16705667972564697,1510,1510,79.18067932128906,0.015442915260791779
3273602.771,634014432,219.95,103149983,0.02994832769036293,-0.17342409491539001,1510,1510,79.27269744873047,0.015296116471290588
3273702.771,634014431,219.97,103149978,0.03568626940250397,-0.17337793111801147,1510,1510,79.39678955078125,0.015811610966920853
3273802.771,634014431,219.97,103149974,0.03944562375545502,-0.16768904030323029,1510,1510,79.52667999267578,0.016541993245482445
3273902.771,634014431,219.97,103149974,0.029605967923998833,-0.16607794165611267,1510,1510,79.6494369506836,0.017751244828104973
3274002.771,634014431,219.97,103149969,0.038554176688194275,-0.15579478442668915,1510,1510,79.76428985595703,0.01865369826555252
3274102.771,634014431,219.97,103149969,0.04163543879985809,-0.16367030143737793,1510,1510,79.86544799804688,0.017772680148482323
3274202.771,634014431,219.97,103149969,0.0376121811568737,-0.17546145617961884,1510,1510,79.9444808959961,0.015174075029790401
3274302.771,634014430,219.98,103149964,0.025569651275873184,-0.16176356375217438,1510,1510,80.03667449951172,0.013712800107896328
3274402.771,634014430,219.98,103149964,0.024956658482551575,-0.17078334093093872,1510,1510,80.14539337158203,0.014879045076668262
3274502.771,634014430,219.98,103149959,0.03198257088661194,-0.1693969964981079,1510,1510,80.27808380126953,0.017126627266407013
3274602.771,634014430,219.98,103149959,0.045993756502866745,-0.17878805100917816,1510,1510,80.44326782226562,0.018664954230189323
3274702.771,634014431,219.97,103149955,0.04877839237451553,-0.17032617330551147,1510,1510,80.5924301147461,0.01823066547513008
3274802.771,634014431,219.97,103149955,0.04087505862116814,-0.16140775382518768,1510,1510,80.71607208251953,0.01723640412092209
3274902.771,634014431,219.97,103149951,0.034220896661281586,-0.16743704676628113,1510,1510,80.85575103759766,0.01637483574450016
3275002.771,634014431,219.97,103149951,0.035832956433296204,-0.16995027661323547,1510,1510,81.00773620605469,0.016310229897499084
3275102.771,634014431,219.98,103149946,0.03162728250026703,-0.17375068366527557,1510,1510,81.14314270019531,0.015947677195072174
3275202.771,634014431,219.98,103149941,0.03690449148416519,-0.16840501129627228,1510,1510,81.23876953125,0.015918638557195663
3275302.771,634014431,219.98,103149941,0.03056722693145275,-0.16191646456718445,1510,1510,81.32418060302734,0.017086423933506012
3275402.771,634014430,219.99,103149937,0.03301262483000755,-0.16332408785820007,1510,1510,81.43650817871094,0.01829172670841217
3275502.771,634014430,219.99,103149937,0.03288516029715538,-0.17139799892902374,1510,1510,81.54220581054688,0.018926938995718956
3275602.771,634014430,219.99,103149937,0.033274970948696136,-0.16767874360084534,1510,1510,81.61782836914062,0.017600558698177338
3275702.771,634014430,219.99,103149932,0.03147105500102043,-0.17401471734046936,1510,1510,81.68154907226562,0.015937495976686478
3275802.771,634014429,220,103149928,0.03630536422133446,-0.1706291139125824,1510,1510,81.77626037597656,0.01587732508778572
3275902.771,634014429,220,103149928,0.039085257798433304,-0.17213201522827148,1510,1510,81.89141082763672,0.01692701317369938
3276002.771,634014429,220.01,103149924,0.04182914271950722,-0.16865487396717072,1510,1510,82.00409698486328,0.01815374195575714
3276102.771,634014429,220.01,103149924,0.03846156597137451,-0.17062434554100037,1510,1510,82.1269760131836,0.018133556470274925
3276202.771,634014429,220,103149919,0.03142872825264931,-0.16423749923706055,1510,1510,82.23722076416016,0.017830919474363327
3276302.771,634014429,220,103149919,0.03210561349987984,-0.16419881582260132,1510,1510,82.33798217773438,0.01773320510983467
3276402.771,634014428,220.01,103149913,0.03433695062994957,-0.17092284560203552,1510,1510,82.43955993652344,0.017111189663410187
3276502.771,634014428,220.01,103149913,0.036231182515621185,-0.17254045605659485,1510,1510,82.54134368896484,0.01697186753153801
3276602.771,634014428,220.01,103149913,0.038758814334869385,-0.17129388451576233,1510,1510,82.65660858154297,0.01660138927400112
