timestamp(ms),GPS.Lat,GPS.Alt,GPS.Lng,IMU.AccX,IMU.AccY,RCOU.C1,RCOU.C3,DCM.Yaw,IMU.GyrZ
3322622.855,634014506,220.1,103149344,0.027995597571134567,-0.16474375128746033,1510,1510,117.05193328857422,0.007201207801699638
3322722.855,634014506,220.1,103149344,0.028243551030755043,-0.16328147053718567,1510,1510,117.11932373046875,0.007327716331928968
3322822.855,634014506,220.11,103149342,0.03377244621515274,-0.16084474325180054,1510,1510,117.18326568603516,0.007446999661624432
3322922.855,634014506,220.11,103149342,0.03263413533568382,-0.16912102699279785,1510,1510,117.21481323242188,0.006666114553809166
3323022.855,634014507,220.11,103149342,0.03546731919050217,-0.1650393307209015,1510,1510,117.22653198242188,0.006512875203043222
3323122.855,634014507,220.11,103149342,0.0343269407749176,-0.16848401725292206,1510,1510,117.24141693115234,0.006413091905415058
3323222.855,634014508,220.1,103149340,0.030526069924235344,-0.16361944377422333,1510,1510,117.2708740234375,0.0069516003131866455
3323322.855,634014508,220.1,103149340,0.022697146981954575,-0.16554296016693115,1510,1510,117.29793548583984,0.00727270869538188
3323422.855,634014507,220.09,103149339,0.03440134972333908,-0.1657785326242447,1510,1510,117.33365631103516,0.007482724729925394
3323522.855,634014507,220.09,103149339,0.04340241476893425,-0.1671777218580246,1510,1510,117.3844985961914,0.007711462676525116
3323622.855,634014508,220.09,103149338,0.032441068440675735,-0.15984222292900085,1510,1510,117.42595672607422,0.007105889264494181
3323722.855,634014508,220.09,103149338,0.030289707705378532,-0.15786519646644592,1510,1510,117.4505844116211,0.006398409139364958
3323822.855,634014508,220.08,103149337,0.019407933577895164,-0.16499492526054382,1510,1510,117.48357391357422,0.00639352248981595
3323922.855,634014508,220.08,103149337,0.02982466109097004,-0.16425812244415283,1510,1510,117.52873992919922,0.0067095523700118065
3324022.855,634014509,220.08,103149335,0.02879166789352894,-0.16207623481750488,1510,1510,117.57634735107422,0.007259192876517773
3324122.855,634014509,220.08,103149335,0.028593456372618675,-0.1642269641160965,1510,1510,117.60738372802734,0.007430110592395067
3324222.855,634014510,220.08,103149336,0.03815729171037674,-0.16684773564338684,1510,1510,117.64305877685547,0.007376089226454496
3324322.855,634014510,220.08,103149336,0.036411482840776443,-0.1706484854221344,1510,1510,117.68266296386719,0.007175130769610405
3324422.855,634014510,220.09,103149334,0.03750958666205406,-0.16518622636795044,1510,1510,117.71419525146484,0.006749024149030447
3324522.855,634014510,220.09,103149334,0.027728261426091194,-0.16454806923866272,1510,1510,117.74295806884766,0.0067095765843987465
3324622.855,634014510,220.09,103149332,0.022700117900967598,-0.1643265187740326,1510,1510,117.7768783569336,0.007149588316679001
3324722.855,634014510,220.09,103149332,0.029976049438118935,-0.1612640917301178,1510,1510,117.82283020019531,0.007356805726885796
3324822.855,634014511,220.1,103149330,0.031535688787698746,-0.15807315707206726,1510,1510,117.85750579833984,0.007334074005484581
3324922.855,634014511,220.1,103149330,0.03523748368024826,-0.16980022192001343,1510,1510,117.88688659667969,0.007260424550622702
3325022.855,634014511,220.09,103149329,0.031086672097444534,-0.16347205638885498,1510,1510,117.90788269042969,0.0069834403693675995
3325122.855,634014511,220.09,103149329,0.03543303906917572,-0.1737450361251831,1510,1510,117.94683074951172,0.006744032725691795
3325222.855,634014511,220.09,103149328,0.027783112600445747,-0.1651231050491333,1510,1510,117.9886703491211,0.006709475535899401
3325322.855,634014511,220.09,103149328,0.02487574890255928,-0.16069145500659943,1510,1510,118.03517150878906,0.007093230728060007
3325422.855,634014512,220.09,103149326,0.02369515597820282,-0.1671023964881897,1510,1510,118.08983612060547,0.007660491857677698
3325522.855,634014512,220.09,103149326,0.029984015971422195,-0.16240352392196655,1510,1510,118.16374206542969,0.007740653585642576
3325622.855,634014512,220.09,103149325,0.03733109310269356,-0.15882283449172974,1510,1510,118.23884582519531,0.007787368725985289
3325722.855,634014512,220.09,103149325,0.03444794565439224,-0.16339096426963806,1510,1510,118.2977523803711,0.007318469230085611
3325822.855,634014512,220.09,103149324,0.0295269638299942,-0.16625864803791046,1510,1510,118.35291290283203,0.006517158355563879
3325922.855,634014512,220.09,103149324,0.03608720004558563,-0.1677851676940918,1510,1510,118.40897369384766,0.006831686943769455
3326022.855,634014512,220.09,103149322,0.023528622463345528,-0.16521529853343964,1510,1510,118.45936584472656,0.007141240872442722
3326122.855,634014512,220.09,103149322,0.022491060197353363,-0.17164772748947144,1510,1510,118.49578094482422,0.007244378328323364
3326222.855,634014513,220.09,103149321,0.029089199379086494,-0.16121527552604675,1510,1510,118.51676940917969,0.007645965088158846
3326322.855,634014513,220.09,103149321,0.031793247908353806,-0.1708076298236847,1510,1510,118.54024505615234,0.0077070253901183605
3326422.855,634014512,220.08,103149319,0.03644562140107155,-0.16710492968559265,1510,1510,118.5780029296875,0.007041438948363066
3326522.855,634014512,220.08,103149319,0.034940242767333984,-0.16379371285438538,1508,1507,118.6096420288086,0.006770046427845955
3326622.855,634014513,220.08,103149317,0.0365481823682785,-0.16857165098190308,1508,1507,118.62207794189453,0.006567474454641342
3326722.855,634014513,220.08,103149317,0.0159527026116848,-0.1828664243221283,1510,1510,118.5811996459961,0.0049113864079117775
3326822.855,634014513,220.09,103149317,0.11609689891338348,-0.20432403683662415,1510,1510,118.40416717529297,-0.016496725380420685
3326922.855,634014513,220.09,103149317,0.02367098443210125,-0.12991388142108917,1510,1510,118.26619720458984,-0.024538835510611534
3327022.855,634014513,220.08,103149316,0.012472398579120636,-0.20303702354431152,1510,1510,118.17413330078125,-0.01756015233695507
3327122.855,634014513,220.08,103149316,0.07555020600557327,-0.1880287230014801,1254,1100,118.08936309814453,-0.015534819103777409
3327222.855,634014513,220.07,103149316,0.08566498756408691,-0.15224184095859528,1254,1100,117.9071044921875,-0.019985493272542953
3327322.855,634014513,220.07,103149316,0.2537922263145447,-0.2206050455570221,1510,1510,117.51424407958984,-0.049776170402765274
3327422.855,634014512,220.07,103149316,0.01275493111461401,-0.19090303778648376,1510,1510,117.10943603515625,-0.07678783684968948
3327522.855,634014512,220.07,103149316,0.033531226217746735,-0.1601354479789734,1510,1510,116.77557373046875,-0.06786666810512543
3327622.855,634014513,220.08,103149316,0.04773728922009468,-0.16505807638168335,1510,1510,116.48480224609375,-0.05482209846377373
3327722.855,634014513,220.08,103149316,0.0598941408097744,-0.16832907497882843,1254,1100,116.15914916992188,-0.05367433279752731
3327822.855,634014513,220.08,103149317,0.2438933551311493,-0.19932538270950317,1510,1510,115.65681457519531,-0.06751826405525208
3327922.855,634014513,220.08,103149317,0.13788345456123352,-0.1980554759502411,1510,1510,115.00772857666016,-0.1067555770277977
3328022.855,634014513,220.08,103149318,0.012584933079779148,-0.15199622511863708,1510,1510,114.41736602783203,-0.11344146728515625
3328122.855,634014513,220.08,103149318,0.028669124469161034,-0.19809389114379883,1510,1510,113.87555694580078,-0.10040400922298431
3328222.855,634014513,220.08,103149319,0.018374230712652206,-0.17386598885059357,1487,1473,113.3554458618164,-0.09043547511100769
3328322.855,634014513,220.08,103149319,0.03824968263506889,-0.13029521703720093,1338,1234,112.8935546875,-0.08750556409358978
3328422.855,634014512,220.09,103149321,0.22495266795158386,-0.25315871834754944,1338,1234,112.26152038574219,-0.095466747879982
3328522.855,634014512,220.09,103149321,0.16539227962493896,-0.18695591390132904,1510,1510,111.43544006347656,-0.133396178483963
3328622.855,634014512,220.09,103149323,0.0125227440148592,-0.12491630762815475,1510,1510,110.62030792236328,-0.14348144829273224
3328722.855,634014512,220.09,103149323,0.012774051167070866,-0.20917338132858276,1510,1510,109.9103775024414,-0.13111793994903564
3328822.855,634014512,220.1,103149324,-0.002132638357579708,-0.1598851978778839,1510,1510,109.29434967041016,-0.11703897267580032
3328922.855,634014512,220.1,103149324,0.04735448211431503,-0.12187600135803223,1468,1443,108.68692016601562,-0.10923673212528229
3329022.855,634014512,220.1,103149326,0.052376940846443176,-0.17793850600719452,1472,1449,108.02781677246094,-0.11083106696605682
3329122.855,634014512,220.1,103149326,0.33011171221733093,-0.23880484700202942,1510,1510,107.14008331298828,-0.13249541819095612
3329222.855,634014512,220.1,103149329,-0.04150610789656639,-0.15211069583892822,1510,1510,106.20679473876953,-0.161447212100029
3329322.855,634014512,220.1,103149329,-0.0031213704496622086,-0.21249903738498688,1510,1510,105.3568115234375,-0.15128502249717712
3329422.855,634014511,220.1,103149332,-0.01609974168241024,-0.14553850889205933,1510,1510,104.61378479003906,-0.13133929669857025
3329522.855,634014511,220.1,103149332,0.05942077562212944,-0.14688065648078918,1510,1510,103.91166687011719,-0.11996238678693771
3329622.855,634014511,220.11,103149334,0.03879214823246002,-0.177642822265625,1510,1510,103.20580291748047,-0.12180858850479126
3329722.855,634014511,220.11,103149334,0.05183248594403267,-0.16626282036304474,1510,1510,102.46151733398438,-0.13099625706672668
3329822.855,634014511,220.1,103149336,0.0063432371243834496,-0.14421236515045166,1510,1510,101.67523956298828,-0.13637091219425201
3329922.855,634014511,220.1,103149336,-0.0021291892044246197,-0.17911571264266968,1510,1510,100.9221420288086,-0.13245387375354767
3330022.855,634014512,220.11,103149338,-0.017158987000584602,-0.1510980874300003,1510,1510,100.24175262451172,-0.12125290185213089
3330122.855,634014512,220.11,103149338,0.012653744779527187,-0.1539059430360794,1510,1510,99.62145233154297,-0.1089038997888565
3330222.855,634014511,220.11,103149340,0.024536820128560066,-0.18892109394073486,1510,1510,99.0278091430664,-0.10196185111999512
3330322.855,634014511,220.11,103149340,0.05211468040943146,-0.16669674217700958,1510,1510,98.42430877685547,-0.10246613621711731
3330422.855,634014512,220.12,103149342,0.05072382465004921,-0.17235088348388672,1510,1510,97.78241729736328,-0.10875776410102844
3330522.855,634014512,220.12,103149342,0.033426523208618164,-0.18005798757076263,1510,1510,97.11216735839844,-0.11443593353033066
3330622.855,634014511,220.12,103149344,-0.006441813427954912,-0.14840784668922424,1510,1510,96.49102783203125,-0.11319148540496826
3330722.855,634014511,220.12,103149344,-0.027981027960777283,-0.1460365504026413,1510,1510,95.93949890136719,-0.10254281014204025
3330822.855,634014512,220.12,103149346,0.0027863881550729275,-0.1523345410823822,1510,1510,95.45038604736328,-0.08935334533452988
3330922.855,634014512,220.12,103149346,0.041211195290088654,-0.16553479433059692,1498,1491,94.95469665527344,-0.08380351960659027
3331022.855,634014511,220.11,103149348,0.06088490039110184,-0.17458318173885345,1498,1491,94.38481140136719,-0.08949154615402222
3331122.855,634014511,220.11,103149348,0.02888311818242073,-0.19028709828853607,1510,1510,93.7460708618164,-0.09928476065397263
3331222.855,634014512,220.13,103149350,-0.0020348108373582363,-0.16566061973571777,1510,1510,93.12724304199219,-0.10319028794765472
3331322.855,634014512,220.13,103149350,-0.011292187497019768,-0.15813741087913513,1510,1510,92.5826416015625,-0.09572216123342514
3331422.855,634014512,220.13,103149352,0.009036783128976822,-0.1500529944896698,1510,1510,92.09042358398438,-0.08409839868545532
3331522.855,634014512,220.13,103149352,0.030364535748958588,-0.15837274491786957,1510,1510,91.60489654541016,-0.07734153419733047
3331622.855,634014512,220.14,103149353,0.050242673605680466,-0.16367390751838684,1510,1510,91.12397003173828,-0.0775546059012413
3331722.855,634014512,220.14,103149353,0.050625380128622055,-0.16855427622795105,1510,1510,90.62757873535156,-0.08228055387735367
3331822.855,634014512,220.13,103149356,0.04315786063671112,-0.1751241683959961,1510,1510,90.09938049316406,-0.08692485839128494
3331922.855,634014512,220.13,103149356,0.010733694769442081,-0.1660802662372589,1510,1510,89.58775329589844,-0.08761326968669891
3332022.855,634014512,220.14,103149357,0.004178005736321211,-0.16569775342941284,1510,1510,89.12166595458984,-0.08268219232559204
3332122.855,634014512,220.14,103149357,-0.00038251609657891095,-0.15992331504821777,1516,1514,88.70386505126953,-0.07430846989154816
3332222.855,634014512,220.14,103149359,0.022337011992931366,-0.15452177822589874,1516,1514,88.30355834960938,-0.06712006032466888
3332322.855,634014512,220.14,103149359,0.04825516417622566,-0.1699676662683487,1513,1512,87.89443969726562,-0.0665862113237381
3332422.855,634014512,220.13,103149360,0.05670293793082237,-0.17892295122146606,1513,1512,87.44891357421875,-0.07276476174592972
3332522.855,634014512,220.13,103149360,0.03012147732079029,-0.16979876160621643,1510,1510,86.98257446289062,-0.07974323630332947
3332622.855,634014512,220.14,103149362,0.0016280540730804205,-0.15171274542808533,1510,1510,86.52802276611328,-0.07865574210882187
3332722.855,634014512,220.14,103149362,-0.24356283247470856,-0.1376771628856659,1510,1510,86.16283416748047,-0.06803739815950394
3332822.855,634014512,220.14,103149363,0.07023846358060837,-0.13059265911579132,1510,1510,85.8429946899414,-0.05058141052722931
3332922.855,634014512,220.14,103149363,-0.021727222949266434,-0.14394526183605194,1510,1510,85.5130386352539,-0.050214651972055435
3333022.855,634014512,220.13,103149364,0.07245643436908722,-0.19624829292297363,1510,1510,85.1487808227539,-0.05774272233247757
3333122.855,634014512,220.13,103149364,0.016403095796704292,-0.1450786292552948,1510,1510,84.78136444091797,-0.06303820759057999
3333222.855,634014511,220.14,103149364,0.06996248662471771,-0.18457923829555511,1510,1510,84.42457580566406,-0.06320357322692871
3333322.855,634014511,220.14,103149364,0.013650447130203247,-0.17930912971496582,1510,1510,84.09757995605469,-0.058053139597177505
3333422.855,634014511,220.12,103149365,0.054248563945293427,-0.16020454466342926,1510,1510,83.7948989868164,-0.05189536511898041
3333522.855,634014511,220.12,103149365,0.011891879141330719,-0.1631152331829071,1510,1510,83.49706268310547,-0.04807116091251373
3333622.855,634014511,220.12,103149367,0.03639763593673706,-0.17967848479747772,1510,1510,83.1815185546875,-0.04775243252515793
3333722.855,634014511,220.12,103149367,0.015501639805734158,-0.14951106905937195,1510,1510,82.8373794555664,-0.051045794039964676
3333822.855,634014511,220.12,103149368,0.03975549712777138,-0.16768696904182434,1510,1510,82.47505950927734,-0.05515693873167038
3333922.855,634014511,220.12,103149368,0.005717684049159288,-0.17508791387081146,1510,1510,82.13076782226562,-0.056374311447143555
3334022.855,634014511,220.1,103149369,0.02937537431716919,-0.15602906048297882,1510,1510,81.82941436767578,-0.05261630564928055
3334122.855,634014511,220.1,103149369,0.015764445066452026,-0.16348983347415924,1510,1510,81.54906463623047,-0.045189063996076584
3334222.855,634014511,220.1,103149369,0.04415213316679001,-0.16975149512290955,1510,1510,81.28980255126953,-0.040420375764369965
3334322.855,634014511,220.1,103149369,0.060151390731334686,-0.1658053696155548,1510,1510,81.01496124267578,-0.04249992221593857
3334422.855,634014511,220.09,103149371,0.0424472838640213,-0.17528915405273438,1510,1510,80.7049560546875,-0.04904253035783768
3334522.855,634014511,220.09,103149371,0.010128935799002647,-0.16479265689849854,1510,1510,80.38829803466797,-0.051957227289676666
3334622.855,634014511,220.09,103149370,-0.08063646405935287,-0.1340831071138382,1510,1510,80.13336944580078,-0.04630489647388458
3334722.855,634014511,220.09,103149370,-0.05423765257000923,-0.17236773669719696,1510,1510,79.8932113647461,-0.036039985716342926
3334822.855,634014510,220.09,103149371,0.06613820791244507,-0.17038527131080627,1510,1510,79.67350006103516,-0.03437056019902229
3334922.855,634014510,220.09,103149371,0.01105758547782898,-0.1342209130525589,1510,1510,79.45392608642578,-0.03606726601719856
3335022.855,634014510,220.08,103149371,0.08190584927797318,-0.19284231960773468,1510,1510,79.21773529052734,-0.0381733663380146
3335122.855,634014510,220.08,103149371,0.024983122944831848,-0.1583729237318039,1510,1510,78.94202423095703,-0.039690639823675156
3335222.855,634014510,220.08,103149371,0.04853058606386185,-0.1601330041885376,1510,1510,78.67819213867188,-0.0396573431789875
3335322.855,634014510,220.08,103149371,0.005781553220003843,-0.17046751081943512,1510,1510,78.44813537597656,-0.037555694580078125
3335422.855,634014510,220.08,103149371,0.026716070249676704,-0.16486923396587372,1510,1510,78.2337875366211,-0.03535668924450874
3335522.855,634014510,220.08,103149371,-0.004191261250525713,-0.1645474135875702,1510,1510,78.03185272216797,-0.032515332102775574
3335622.855,634014510,220.07,103149372,0.028911614790558815,-0.1723155677318573,1510,1510,77.82207489013672,-0.03167799115180969
3335722.855,634014510,220.07,103149372,0.0290316604077816,-0.16124969720840454,1510,1510,77.58102416992188,-0.03342719003558159
3335822.855,634014510,220.08,103149372,0.04687332361936569,-0.1644153594970703,1510,1510,77.33100128173828,-0.03758438676595688
3335922.855,634014510,220.08,103149372,0.02323281392455101,-0.1656280755996704,1510,1510,77.1047134399414,-0.03830331563949585
3336022.855,634014509,220.07,103149372,0.028506524860858917,-0.16452272236347198,1510,1510,76.89379119873047,-0.03496115654706955
3336122.855,634014509,220.07,103149372,0.024776898324489594,-0.16122028231620789,1560,1541,76.69739532470703,-0.030185658484697342
3336222.855,634014509,220.07,103149373,0.02806822769343853,-0.17071852087974548,1560,1541,76.50582885742188,-0.029352344572544098
3336322.855,634014509,220.07,103149373,-0.04664235934615135,-0.15829512476921082,1510,1510,76.33818817138672,-0.02668960765004158
3336422.855,634014509,220.06,103149372,-0.009430893696844578,-0.18692553043365479,1510,1510,76.14826202392578,-0.026023535057902336
3336522.855,634014509,220.06,103149372,0.01650387980043888,-0.1641218364238739,1510,1510,75.95719146728516,-0.02972954697906971
3336622.855,634014508,220.06,103149371,0.013309817761182785,-0.15929369628429413,1510,1510,75.79171752929688,-0.02913220226764679
3336722.855,634014508,220.06,103149371,0.0398731455206871,-0.18377327919006348,1510,1510,75.62992858886719,-0.026453640311956406
3336822.855,634014508,220.06,103149371,0.04962000995874405,-0.16505445539951324,1510,1510,75.46431732177734,-0.023916980251669884
3336922.855,634014508,220.06,103149371,0.06943381577730179,-0.1574917584657669,1858,1727,75.3052749633789,-0.0218194629997015
3337022.855,634014508,220.05,103149371,0.0370415523648262,-0.17345760762691498,1858,1727,75.1548080444336,-0.022185664623975754
3337122.855,634014508,220.05,103149371,-0.03364522010087967,-0.20301778614521027,1510,1510,75.05248260498047,-0.014842566102743149
3337222.855,634014507,220.05,103149371,0.10829959809780121,-0.1332475244998932,1510,1510,74.91169738769531,-0.015757795423269272
3337322.855,634014507,220.05,103149371,-0.02795787900686264,-0.1616167575120926,1510,1510,74.76407623291016,-0.021184071898460388
3337422.855,634014507,220.06,103149371,0.03083440661430359,-0.21127772331237793,1510,1510,74.65160369873047,-0.01968330517411232
3337522.855,634014507,220.06,103149371,-0.017995519563555717,-0.13199108839035034,1510,1510,74.59361267089844,-0.013790472410619259
3337622.855,634014507,220.07,103149371,0.06983453035354614,-0.170524001121521,1510,1510,74.51872253417969,-0.010223076678812504
3337722.855,634014507,220.07,103149371,0.017872745171189308,-0.18389864265918732,1510,1510,74.4171371459961,-0.01162553858011961
3337822.855,634014507,220.05,103149370,0.08239223808050156,-0.14269612729549408,1510,1510,74.28457641601562,-0.01621130481362343
3337922.855,634014507,220.05,103149370,0.012608900666236877,-0.1640947014093399,1510,1510,74.1462631225586,-0.01918874680995941
3338022.855,634014507,220.06,103149370,0.0370173342525959,-0.1832607239484787,1510,1510,74.02699279785156,-0.018930500373244286
3338122.855,634014507,220.06,103149370,0.0093345046043396,-0.1408684104681015,1510,1510,73.91487884521484,-0.01647663488984108
3338222.855,634014507,220.06,103149370,0.033758364617824554,-0.16776858270168304,1510,1510,73.82459259033203,-0.014132781885564327
3338322.855,634014507,220.06,103149370,0.01077763456851244,-0.17878203094005585,1510,1510,73.73648071289062,-0.013570754788815975
3338422.855,634014506,220.06,103149369,0.03450777381658554,-0.1551620364189148,1510,1510,73.63162231445312,-0.013789355754852295
3338522.855,634014506,220.06,103149369,0.029581867158412933,-0.17117559909820557,1510,1510,73.5123519897461,-0.015845300629734993
3338622.855,634014506,220.06,103149369,0.04791038855910301,-0.1781827062368393,1510,1510,73.34442138671875,-0.01915600150823593
3338722.855,634014506,220.06,103149369,0.028610631823539734,-0.15254773199558258,1510,1510,73.16696166992188,-0.020925164222717285
3338822.855,634014506,220.06,103149368,0.019261181354522705,-0.16967648267745972,1510,1510,73.0316162109375,-0.018220722675323486
3338922.855,634014506,220.06,103149368,0.01746218092739582,-0.16197969019412994,1510,1510,72.93236541748047,-0.013638205826282501
3339022.855,634014505,220.06,103149369,0.04608193784952164,-0.15414957702159882,1510,1510,72.8365707397461,-0.011570096015930176
3339122.855,634014505,220.06,103149369,0.038039885461330414,-0.16522864997386932,1510,1510,72.71089935302734,-0.01407050620764494
3339222.855,634014506,220.05,103149367,0.04008333012461662,-0.17414437234401703,1510,1510,72.58245849609375,-0.01906316727399826
3339322.855,634014506,220.05,103149367,0.023023506626486778,-0.167107492685318,1510,1510,72.44438934326172,-0.021235164254903793
3339422.855,634014506,220.06,103149368,0.01245923712849617,-0.1694677621126175,1510,1510,72.31352233886719,-0.01922551542520523
3339522.855,634014506,220.06,103149368,0.026468584313988686,-0.1653776615858078,1510,1510,72.21477508544922,-0.016318459063768387
3339622.855,634014505,220.05,103149368,0.04048242047429085,-0.15622544288635254,1510,1510,72.11885833740234,-0.01414405182003975
3339722.855,634014505,220.05,103149368,0.03688590228557587,-0.1713535487651825,1510,1510,72.0019760131836,-0.01483580656349659
3339822.855,634014505,220.05,103149367,0.03924577310681343,-0.16869580745697021,1510,1510,71.88455963134766,-0.016403326764702797
3339922.855,634014505,220.05,103149367,0.03080684319138527,-0.16473039984703064,1510,1510,71.74846649169922,-0.01816340535879135
3340022.855,634014505,220.05,103149367,0.02582845278084278,-0.17411337792873383,1510,1510,71.60895538330078,-0.019325943663716316
3340122.855,634014505,220.05,103149367,0.01852327771484852,-0.1607060581445694,1510,1510,71.48139190673828,-0.0190344899892807
3340222.855,634014505,220.05,103149367,-0.08573737740516663,-0.17629534006118774,1785,1682,71.39791870117188,-0.01738816127181053
3340322.855,634014505,220.05,103149367,0.02543957158923149,-0.18167288601398468,1510,1510,71.48353576660156,0.009026107378304005
3340422.855,634014504,220.05,103149367,0.12129747867584229,-0.12188419699668884,1510,1510,71.53772735595703,0.013654210604727268
3340522.855,634014504,220.05,103149367,0.018538331612944603,-0.16744178533554077,1510,1510,71.52535247802734,0.0036228925455361605
3340622.855,634014504,220.05,103149367,0.048048097640275955,-0.21439126133918762,1510,1510,71.49917602539062,-0.0019447470549494028
3340722.855,634014504,220.05,103149367,-0.03233930096030235,-0.14234595000743866,1510,1510,71.4875259399414,0.0002315552846994251
3340822.855,634014504,220.05,103149367,0.029910363256931305,-0.18895410001277924,1510,1510,71.5137710571289,0.007034357637166977
3340922.855,634014504,220.05,103149367,-0.01607367768883705,-0.1865030974149704,1510,1510,71.58130645751953,0.012295730412006378
3341022.855,634014503,220.05,103149367,0.0797295942902565,-0.13990966975688934,1510,1510,71.6360092163086,0.011737260967493057
3341122.855,634014503,220.05,103149367,0.031402669847011566,-0.14944404363632202,1510,1510,71.65959167480469,0.006955885328352451
3341222.855,634014503,220.04,103149367,0.06975595653057098,-0.17410950362682343,1510,1510,71.66732788085938,0.001712281722575426
3341322.855,634014503,220.04,103149367,0.018560059368610382,-0.14054225385189056,1510,1510,71.66658020019531,-0.00031011318787932396
3341422.855,634014502,220.03,103149367,0.033209819346666336,-0.17678268253803253,1510,1510,71.66539764404297,0.0012819678522646427
3341522.855,634014502,220.03,103149367,-0.010580219328403473,-0.16651204228401184,1510,1510,71.68944549560547,0.005953052546828985
3341622.855,634014502,220.04,103149368,0.04795154184103012,-0.1624385565519333,1510,1510,71.71822357177734,0.00920085422694683
3341722.855,634014502,220.04,103149368,0.02157941833138466,-0.1766664981842041,1510,1510,71.7345199584961,0.008665325120091438
3341822.855,634014501,220.03,103149368,0.06044967472553253,-0.18353964388370514,1510,1510,71.73255157470703,0.0041979774832725525
3341922.855,634014501,220.03,103149368,0.0341704785823822,-0.1507354974746704,1510,1510,71.70027160644531,-0.000994312111288309
3342022.855,634014501,220.03,103149369,0.027632055804133415,-0.16313126683235168,1510,1510,71.66362762451172,-0.0026415095198899508
3342122.855,634014501,220.03,103149369,0.008021855726838112,-0.15889346599578857,1510,1510,71.65724182128906,0.000694035436026752
3342222.855,634014500,220.03,103149368,0.032247237861156464,-0.15793204307556152,1510,1510,71.69338989257812,0.006478450261056423
3342322.855,634014500,220.03,103149368,0.031022410839796066,-0.17007747292518616,1510,1510,71.7455825805664,0.008068970404565334
3342422.855,634014500,220.02,103149368,0.04779685288667679,-0.16814464330673218,1510,1510,71.74491882324219,0.005609075538814068
3342522.855,634014500,220.02,103149368,0.03977280855178833,-0.15992848575115204,1510,1510,71.70886993408203,0.0008283152710646391
3342622.855,634014500,220.01,103149368,0.03585432469844818,-0.1809360384941101,1510,1510,71.68534088134766,-0.002787089440971613
3342722.855,634014500,220.01,103149368,0.012147999368607998,-0.16803422570228577,1510,1510,71.6787338256836,-0.0023951309267431498
3342822.855,634014499,220,103149367,0.022554710507392883,-0.1644871085882187,1510,1510,71.6856689453125,0.0011014800984412432
3342922.855,634014499,220,103149367,0.020384423434734344,-0.1653287410736084,1510,1510,71.7293701171875,0.00473930174484849
3343022.855,634014499,219.99,103149367,0.037943869829177856,-0.16149190068244934,1510,1510,71.76932525634766,0.006009871140122414
3343122.855,634014499,219.99,103149367,0.051544494926929474,-0.16314569115638733,1510,1510,71.75918579101562,0.0035783450584858656
3343222.855,634014498,219.99,103149366,0.04524403065443039,-0.17456725239753723,1510,1510,71.7238998413086,-0.0003724482958205044
3343322.855,634014498,219.99,103149366,0.03453482314944267,-0.16422013938426971,1510,1510,71.66832733154297,-0.003522834274917841
3343422.855,634014499,219.98,103149366,0.02002437226474285,-0.1676715612411499,1510,1510,71.64142608642578,-0.002834579674527049
3343522.855,634014499,219.98,103149366,0.010956861078739166,-0.16956807672977448,1510,1510,71.63546752929688,0.001266451901756227
3343622.855,634014498,219.97,103149365,0.026850804686546326,-0.16954614222049713,1510,1510,71.62456512451172,0.004453880712389946
3343722.855,634014498,219.97,103149365,0.035462457686662674,-0.1727350652217865,1510,1510,71.61400604248047,0.004730252083390951
3343822.855,634014498,219.96,103149364,0.04723789170384407,-0.1695701777935028,1510,1510,71.60283660888672,0.0010625236900523305
3343922.855,634014498,219.96,103149364,0.03740531578660011,-0.16446256637573242,1510,1510,71.59124755859375,-0.0034521175548434258
3344022.855,634014498,219.95,103149364,0.021513860672712326,-0.16420847177505493,1510,1510,71.57307434082031,-0.004481781739741564
3344122.855,634014498,219.95,103149364,0.022418029606342316,-0.1626313328742981,1510,1510,71.57582092285156,-0.0020109342876821756
3344222.855,634014498,219.94,103149363,0.025108715519309044,-0.16646185517311096,1510,1510,71.60041046142578,0.001820565084926784
3344322.855,634014498,219.94,103149363,0.0362776443362236,-0.16549554467201233,1510,1510,71.60919952392578,0.002856444101780653
3344422.855,634014498,219.93,103149362,0.04386960715055466,-0.1618136614561081,1510,1510,71.62298583984375,0.001400248147547245
3344522.855,634014498,219.93,103149362,0.041377678513526917,-0.16294902563095093,1510,1510,71.6134262084961,-0.001717789564281702
3344622.855,634014498,219.92,103149361,0.03148045763373375,-0.17380817234516144,1510,1510,71.57743072509766,-0.0038960997480899096
3344722.855,634014498,219.92,103149361,0.02315910905599594,-0.1731920689344406,1510,1510,71.53824615478516,-0.003941492177546024
3344822.855,634014498,219.91,103149361,0.027182867750525475,-0.16695556044578552,1510,1510,71.49576568603516,-0.0024918057024478912
3344922.855,634014498,219.91,103149361,0.022479064762592316,-0.16568121314048767,1510,1510,71.48026275634766,-0.0005149457138031721
3345022.855,634014498,219.89,103149359,0.03432568535208702,-0.1666378676891327,1510,1510,71.47361755371094,0.0009549856185913086
3345122.855,634014498,219.89,103149359,0.0402921587228775,-0.16748808324337006,1510,1510,71.46855163574219,0.0006938668666407466
3345222.855,634014498,219.88,103149359,0.04709941893815994,-0.1714930236339569,1510,1510,71.45600128173828,-0.002401952864602208
3345322.855,634014498,219.88,103149359,0.038420382887125015,-0.16126568615436554,1510,1510,71.4228744506836,-0.005347779486328363
3345422.855,634014498,219.86,103149358,0.015080910176038742,-0.1600601077079773,1510,1510,71.36624908447266,-0.005501275882124901
3345522.855,634014498,219.86,103149358,0.020726267248392105,-0.16063334047794342,1510,1510,71.326904296875,-0.002101914957165718
3345622.855,634014498,219.85,103149357,0.026316866278648376,-0.1700843870639801,1510,1510,71.31640625,0.0004320760490372777
3345722.855,634014498,219.85,103149357,0.03522150591015816,-0.16360384225845337,1510,1510,71.29698181152344,-0.00006915018457220867
3345822.855,634014498,219.84,103149357,0.038905151188373566,-0.1573796272277832,1510,1510,71.27967834472656,-0.0024318797513842583
3345922.855,634014498,219.84,103149357,0.027177538722753525,-0.15658292174339294,1510,1510,71.237548828125,-0.0047173514030873775
3346022.855,634014498,219.83,103149356,0.024617332965135574,-0.16884008049964905,1510,1510,71.20645904541016,-0.00505877286195755
3346122.855,634014498,219.83,103149356,0.02153444103896618,-0.17461419105529785,1510,1510,71.17437744140625,-0.003960156813263893
3346222.855,634014498,219.81,103149355,0.03130161017179489,-0.17160017788410187,1510,1510,71.14952087402344,-0.002289190422743559
3346322.855,634014498,219.81,103149355,0.0335853174328804,-0.16142992675304413,1510,1510,71.1350326538086,-0.0015447610057890415
3346422.855,634014498,219.8,103149355,0.03324810788035393,-0.16129885613918304,1510,1510,71.10327911376953,-0.0014512715861201286
3346522.855,634014498,219.8,103149355,0.04307084158062935,-0.16028229892253876,1510,1510,71.06411743164062,-0.0026154303923249245
3346622.855,634014498,219.79,103149354,0.030495772138237953,-0.1626155823469162,1510,1510,71.01154327392578,-0.004271622747182846
3346722.855,634014498,219.79,103149354,0.032601162791252136,-0.16790027916431427,1510,1510,70.95977020263672,-0.006064287386834621
3346822.855,634014498,219.77,103149353,0.02235407382249832,-0.1660425066947937,1510,1510,70.9201889038086,-0.00504821352660656
3346922.855,634014498,219.77,103149353,0.020345762372016907,-0.16456003487110138,1510,1510,70.90518951416016,-0.0024643419310450554
3347022.855,634014498,219.77,103149353,0.02780759334564209,-0.165071040391922,1510,1510,70.92164611816406,-0.0006967845838516951
3347122.855,634014498,219.77,103149353,0.04252815991640091,-0.16580423712730408,1510,1510,70.91998291015625,-0.0017938227392733097
3347222.855,634014498,219.75,103149352,0.041097305715084076,-0.1655813455581665,1510,1510,70.8880615234375,-0.0045586563646793365
3347322.855,634014498,219.75,103149352,0.030340619385242462,-0.16310647130012512,1510,1510,70.84947967529297,-0.006122171878814697
3347422.855,634014498,219.74,103149352,0.02217923477292061,-0.16688072681427002,1510,1510,70.77716064453125,-0.005439444910734892
3347522.855,634014498,219.74,103149352,0.027726424857974052,-0.17253059148788452,1510,1510,70.72350311279297,-0.0032467967830598354
3347622.855,634014498,219.73,103149351,0.030597012490034103,-0.16925987601280212,1510,1510,70.69084167480469,-0.0021048653870821
3347722.855,634014498,219.73,103149351,0.029215333983302116,-0.15951672196388245,1510,1510,70.64725494384766,-0.002722128527238965
3347822.855,634014497,219.71,103149350,0.03079555369913578,-0.1611730307340622,1510,1510,70.6176528930664,-0.003625284181907773
3347922.855,634014497,219.71,103149350,0.036718204617500305,-0.16295640170574188,1510,1510,70.58413696289062,-0.0046233246102929115
3348022.855,634014498,219.7,103149349,0.038688741624355316,-0.16847817599773407,1510,1510,70.5359878540039,-0.004992002155631781
3348122.855,634014498,219.7,103149349,0.02748245932161808,-0.174043670296669,1510,1510,70.50135803222656,-0.004805229138582945
3348222.855,634014497,219.69,103149348,0.024901844561100006,-0.16948476433753967,1510,1510,70.47623443603516,-0.004180526360869408
3348322.855,634014497,219.69,103149348,0.03028123453259468,-0.16197869181632996,1510,1510,70.4627685546875,-0.0026660345029085875
3348422.855,634014498,219.67,103149348,0.03757603466510773,-0.16509273648262024,1510,1510,70.4324722290039,-0.0017637360142543912
3348522.855,634014498,219.67,103149348,0.03348444029688835,-0.165338933467865,1510,1510,70.40194702148438,-0.003122489433735609
3348622.855,634014498,219.67,103149347,0.031192656606435776,-0.16138920187950134,1510,1510,70.3449935913086,-0.005356656853109598
3348722.855,634014498,219.67,103149347,0.031179752200841904,-0.16145531833171844,1510,1510,70.29634094238281,-0.006344637367874384
3348822.855,634014498,219.66,103149346,0.02344990335404873,-0.15837432444095612,1510,1510,70.27117919921875,-0.00534595875069499
3348922.855,634014498,219.66,103149346,0.027038559317588806,-0.16435176134109497,1510,1510,70.23918914794922,-0.002941798884421587
3349022.855,634014498,219.65,103149345,0.030845677480101585,-0.17079073190689087,1510,1510,70.20752716064453,-0.0022051120176911354
3349122.855,634014498,219.65,103149345,0.03657890111207962,-0.16621023416519165,1510,1510,70.16046142578125,-0.0035487068817019463
3349222.855,634014498,219.64,103149344,0.03212486207485199,-0.15800249576568604,1510,1510,70.10420989990234,-0.005110541824251413
3349322.855,634014498,219.64,103149344,0.03298906981945038,-0.16461071372032166,1510,1510,70.05522155761719,-0.005266361404210329
3349422.855,634014498,219.63,103149344,0.030539920553565025,-0.16444221138954163,1510,1510,70.02299499511719,-0.005210347473621368
3349522.855,634014498,219.63,103149344,0.026932012289762497,-0.17256605625152588,1510,1510,69.97346496582031,-0.004518870264291763
3349622.855,634014498,219.63,103149343,0.024743275716900826,-0.16515100002288818,1510,1510,69.91776275634766,-0.004201149567961693
3349722.855,634014498,219.63,103149343,0.027168292552232742,-0.16291698813438416,1510,1510,69.8927001953125,-0.0038916897028684616
3349822.855,634014498,219.62,103149343,0.02949048951268196,-0.16607257723808289,1510,1510,69.89974212646484,-0.003698834218084812
3349922.855,634014498,219.62,103149343,0.03714951500296593,-0.16411493718624115,1510,1510,69.88224792480469,-0.004588440991938114
3350022.855,634014498,219.61,103149342,0.038812801241874695,-0.16952523589134216,1510,1510,69.82534790039062,-0.0066086295992136
3350122.855,634014498,219.61,103149342,0.025595592334866524,-0.16285991668701172,1510,1510,69.78238677978516,-0.006358655635267496
3350222.855,634014499,219.6,103149342,0.02920224517583847,-0.16492228209972382,1510,1510,69.75859069824219,-0.005019104108214378
3350322.855,634014499,219.6,103149342,0.029819538816809654,-0.16614389419555664,1510,1510,69.74082946777344,-0.0032847654074430466
3350422.855,634014499,219.6,103149341,0.02924417145550251,-0.17040717601776123,1510,1510,69.73176574707031,-0.003159464104101062
3350522.855,634014499,219.6,103149341,0.03822284936904907,-0.17348001897335052,1510,1510,69.7088394165039,-0.004562655463814735
3350622.855,634014499,219.59,103149340,0.024751096963882446,-0.16555118560791016,1510,1510,69.68194580078125,-0.006063142791390419
3350722.855,634014499,219.59,103149340,0.025471599772572517,-0.16143792867660522,1510,1510,69.64280700683594,-0.006539844907820225
3350822.855,634014499,219.59,103149339,0.027040882036089897,-0.1748175173997879,1510,1510,69.60072326660156,-0.0053369710221886635
3350922.855,634014499,219.59,103149339,0.029534805566072464,-0.16659165918827057,1510,1510,69.5755615234375,-0.004377891309559345
3351022.855,634014499,219.58,103149339,0.03773680329322815,-0.16755574941635132,1510,1510,69.54998016357422,-0.004615699872374535
3351122.855,634014499,219.58,103149339,0.037882786244153976,-0.1562003642320633,1510,1510,69.52071380615234,-0.004556136205792427
3351222.855,634014499,219.57,103149338,0.030579470098018646,-0.1576460897922516,1510,1510,69.48379516601562,-0.004831244237720966
3351322.855,634014499,219.57,103149338,0.027390675619244576,-0.16963225603103638,1510,1510,69.46248626708984,-0.005481725558638573
3351422.855,634014500,219.57,103149338,0.024186424911022186,-0.1695300191640854,1510,1510,69.43187713623047,-0.0064198654145002365
3351522.855,634014500,219.57,103149338,0.02395990490913391,-0.1594003438949585,1510,1510,69.37759399414062,-0.006208380684256554
3351622.855,634014500,219.56,103149337,0.022526677697896957,-0.16241495311260223,1510,1510,69.32575988769531,-0.004830602090805769
3351722.855,634014500,219.56,103149337,0.034779392182826996,-0.1651274859905243,1510,1510,69.28195190429688,-0.004109642002731562
3351822.855,634014500,219.56,103149337,0.0380203016102314,-0.16865785419940948,1510,1510,69.24720001220703,-0.00411205505952239
3351922.855,634014500,219.56,103149337,0.03802329674363136,-0.16394928097724915,1510,1510,69.22401428222656,-0.005356641486287117
3352022.855,634014500,219.56,103149337,0.030805204063653946,-0.16534467041492462,1510,1510,69.1932144165039,-0.006495438516139984
3352122.855,634014500,219.56,103149337,0.017749618738889694,-0.15993842482566833,1510,1510,69.1661605834961,-0.006762366741895676
3352222.855,634014500,219.55,103149336,0.02421131357550621,-0.1626269370317459,1510,1510,69.15304565429688,-0.005521584767848253
3352322.855,634014500,219.55,103149336,0.029989810660481453,-0.17133934795856476,1510,1510,69.13585662841797,-0.004360252991318703
3352422.855,634014500,219.55,103149337,0.03014027699828148,-0.1667119562625885,1510,1510,69.11492156982422,-0.0046718912199139595
3352522.855,634014500,219.55,103149337,0.034221455454826355,-0.15698868036270142,1510,1510,69.08937072753906,-0.005230315029621124
3352622.855,634014500,219.55,103149336,0.030152631923556328,-0.15879341959953308,1510,1510,69.05279541015625,-0.005985936615616083
3352722.855,634014500,219.55,103149336,0.028501838445663452,-0.16078001260757446,1510,1510,68.98770904541016,-0.005878182593733072
3352822.855,634014501,219.54,103149336,0.02881276234984398,-0.16865044832229614,1510,1510,68.94896697998047,-0.005696473643183708
3352922.855,634014501,219.54,103149336,0.030720772221684456,-0.17054854333400726,1510,1510,68.92488098144531,-0.0054467120207846165
3353022.855,634014501,219.53,103149335,0.03570447117090225,-0.17147153615951538,1510,1510,68.88946533203125,-0.004991085734218359
3353122.855,634014501,219.53,103149335,0.030717527493834496,-0.16714711487293243,1510,1510,68.85965728759766,-0.004388189874589443
3353222.855,634014501,219.52,103149333,0.02724948339164257,-0.16169287264347076,1510,1510,68.82556915283203,-0.004578063264489174
3353322.855,634014501,219.52,103149333,0.030507685616612434,-0.1694096326828003,1510,1510,68.79297637939453,-0.005555187352001667
3353422.855,634014501,219.51,103149333,0.029458820819854736,-0.16372454166412354,1510,1510,68.74923706054688,-0.0064218733459711075
3353522.855,634014501,219.51,103149333,0.028961215168237686,-0.16609519720077515,1510,1510,68.72319030761719,-0.006263077724725008
3353622.855,634014502,219.51,103149332,0.03031185083091259,-0.17205268144607544,1510,1510,68.72437286376953,-0.005002904683351517
3353722.855,634014502,219.51,103149332,0.027997998520731926,-0.16462798416614532,1510,1510,68.71892547607422,-0.003966366872191429
3353822.855,634014502,219.5,103149331,0.034728601574897766,-0.1661340594291687,1510,1510,68.70252990722656,-0.004236965905874968
3353922.855,634014502,219.5,103149331,0.034345731139183044,-0.16215568780899048,1510,1510,68.67007446289062,-0.005290288012474775
3354022.855,634014502,219.5,103149330,0.02751159854233265,-0.1625281572341919,1510,1510,68.6224136352539,-0.0061342851258814335
3354122.855,634014502,219.5,103149330,0.022782638669013977,-0.15557773411273956,1510,1510,68.58627319335938,-0.0060819704085588455
3354222.855,634014502,219.49,103149329,0.028703607618808746,-0.1735350489616394,1510,1510,68.55587768554688,-0.005460652988404036
3354322.855,634014502,219.49,103149329,0.02834302932024002,-0.16853731870651245,1510,1510,68.53179931640625,-0.005012678448110819
3354422.855,634014503,219.48,103149329,0.03437858447432518,-0.17240047454833984,1510,1510,68.50440979003906,-0.004789179190993309
3354522.855,634014503,219.48,103149329,0.03227724879980087,-0.16229844093322754,1510,1510,68.47662353515625,-0.004782780073583126
3354622.855,634014503,219.48,103149328,0.04010648652911186,-0.16317403316497803,1510,1510,68.45095825195312,-0.005194517318159342
3354722.855,634014503,219.48,103149328,0.03810238465666771,-0.16881488263607025,1510,1510,68.4110107421875,-0.005544526502490044
3354822.855,634014503,219.47,103149327,0.028490984812378883,-0.16661439836025238,1510,1510,68.37560272216797,-0.006296067498624325
3354922.855,634014503,219.47,103149327,0.017837896943092346,-0.16530552506446838,1510,1510,68.33146667480469,-0.005983012728393078
3355022.855,634014503,219.47,103149327,0.023229558020830154,-0.1587844043970108,1510,1510,68.29780578613281,-0.004718280863016844
3355122.855,634014503,219.47,103149327,0.029716450721025467,-0.16900521516799927,1510,1510,68.26271057128906,-0.003873731940984726
3355222.855,634014503,219.46,103149326,0.033794157207012177,-0.16772767901420593,1510,1510,68.21455383300781,-0.004540192894637585
3355322.855,634014503,219.46,103149326,0.03604132682085037,-0.1614682823419571,1510,1510,68.14842987060547,-0.005262859631329775
3355422.855,634014504,219.45,103149325,0.03332383185625076,-0.16115939617156982,1510,1510,68.09931182861328,-0.005855090916156769
3355522.855,634014504,219.45,103149325,0.0347798652946949,-0.16409477591514587,1510,1510,68.0658187866211,-0.005664092022925615
3355622.855,634014503,219.45,103149325,0.023738332092761993,-0.17117120325565338,1510,1510,68.02267456054688,-0.005038278177380562
3355722.855,634014503,219.45,103149325,0.031360384076833725,-0.17434300482273102,1510,1510,67.97321319580078,-0.004445883445441723
3355822.855,634014504,219.44,103149324,0.030645476654171944,-0.16801117360591888,1510,1510,67.94148254394531,-0.00454181432723999
3355922.855,634014504,219.44,103149324,0.024650588631629944,-0.15479795634746552,1671,1610,67.90585327148438,-0.004955201875418425
3356022.855,634014504,219.44,103149323,-0.11649636924266815,-0.1018076241016388,1510,1510,67.95166778564453,-0.004042536020278931
3356122.855,634014504,219.44,103149323,0.15984666347503662,-0.12985029816627502,1510,1510,68.14741516113281,0.02665962651371956
3356222.855,634014504,219.42,103149322,-0.0003809283662121743,-0.1661498248577118,1510,1510,68.29842376708984,0.03419028967618942
3356322.855,634014504,219.42,103149322,0.13185620307922363,-0.18168146908283234,1510,1510,68.43901062011719,0.02475666254758835
3356422.855,634014504,219.42,103149321,-0.023266715928912163,-0.12157286703586578,1510,1510,68.58673095703125,0.022986896336078644
3356522.855,634014504,219.42,103149321,0.05158684775233269,-0.21722204983234406,1510,1510,68.74653625488281,0.02770017832517624
3356622.855,634014504,219.42,103149321,-0.04810358211398125,-0.18243785202503204,1510,1510,68.92742156982422,0.03285476192831993
3356722.855,634014504,219.42,103149321,0.06411506980657578,-0.16546498239040375,1452,1417,69.08861541748047,0.03339235857129097
3356822.855,634014504,219.41,103149320,-0.050530366599559784,-0.18054135143756866,1510,1510,69.22042846679688,0.030914468690752983
3356922.855,634014504,219.41,103149320,0.37892138957977295,-0.21258361637592316,1510,1510,69.15310668945312,0.011342181824147701
3357022.855,634014505,219.4,103149320,-0.04507102817296982,-0.1598486304283142,1510,1510,69.07601928710938,-0.014363441616296768
3357122.855,634014505,219.4,103149320,0.09683935344219208,-0.22638475894927979,1510,1510,69.02961730957031,-0.009746305644512177
3357222.855,634014505,219.4,103149320,0.011719192378222942,-0.12684889137744904,1510,1510,69.00345611572266,-0.002632118295878172
3357322.855,634014505,219.4,103149320,0.09407893568277359,-0.17176954448223114,1510,1510,68.98954772949219,-0.0010685056913644075
3357422.855,634014505,219.39,103149320,-0.00992515031248331,-0.16076312959194183,1510,1510,68.9742660522461,-0.0037121023051440716
3357522.855,634014505,219.39,103149320,0.07059483975172043,-0.1529865860939026,1486,1472,68.93489837646484,-0.008163725957274437
3357622.855,634014506,219.39,103149320,0.004796774126589298,-0.16264350712299347,1486,1472,68.85034942626953,-0.01340970303863287
3357722.855,634014506,219.39,103149320,0.01872832141816616,-0.19900158047676086,1510,1510,68.74757385253906,-0.01984511688351631
3357822.855,634014506,219.38,103149320,-0.012355081737041473,-0.15353980660438538,1510,1510,68.6978759765625,-0.01605040393769741
3357922.855,634014506,219.38,103149320,0.04366539791226387,-0.1487135887145996,1510,1510,68.69578552246094,-0.005403945222496986
3358022.855,634014506,219.38,103149319,0.0558689646422863,-0.17076276242733002,1510,1510,68.68069458007812,-0.0006622429937124252
3358122.855,634014506,219.38,103149319,0.09223479777574539,-0.17008939385414124,1510,1510,68.6236343383789,-0.005511011928319931
3358222.855,634014506,219.36,103149319,0.04419703781604767,-0.16143661737442017,1510,1510,68.5431137084961,-0.01394864171743393
3358322.855,634014506,219.36,103149319,0.022960713133215904,-0.16941417753696442,1510,1510,68.462646484375,-0.01762435957789421
3358422.855,634014507,219.36,103149319,-0.010245908983051777,-0.1557334065437317,1510,1510,68.41889953613281,-0.014692116528749466
3358522.855,634014507,219.36,103149319,0.01049172692000866,-0.15745070576667786,1510,1510,68.392578125,-0.00866538193076849
3358622.855,634014507,219.36,103149319,0.013608794659376144,-0.16654303669929504,1510,1510,68.38164520263672,-0.0043424321338534355
3358722.855,634014507,219.36,103149319,0.052142392843961716,-0.16522753238677979,1510,1510,68.34947967529297,-0.00449789222329855
3358822.855,634014508,219.35,103149319,0.05359922721982002,-0.1663539707660675,1510,1510,68.27506256103516,-0.00834157969802618
3358922.855,634014508,219.35,103149319,0.051927924156188965,-0.17584963142871857,1510,1510,68.18788146972656,-0.011636357754468918
3359022.855,634014508,219.34,103149319,0.04332203045487404,-0.1682823747396469,1510,1510,68.10771942138672,-0.013755152001976967
3359122.855,634014508,219.34,103149319,0.024842768907546997,-0.16224724054336548,1510,1510,68.05081939697266,-0.014520254917442799
3359222.855,634014509,219.34,103149319,0.007989505305886269,-0.1534968912601471,1510,1510,68.0179672241211,-0.010902967303991318
3359322.855,634014509,219.34,103149319,0.012354058213531971,-0.1485404074192047,1510,1510,68.00032806396484,-0.004037896171212196
3359422.855,634014509,219.33,103149319,0.03632782772183418,-0.16514748334884644,1510,1510,67.95844268798828,-0.001844829530455172
3359522.855,634014509,219.33,103149319,0.05020574852824211,-0.17846745252609253,1510,1510,67.85581970214844,-0.007194756995886564
3359622.855,634014509,219.33,103149319,0.04812741279602051,-0.1753343641757965,1510,1510,67.73225402832031,-0.015403235331177711
3359722.855,634014509,219.33,103149319,0.02010389417409897,-0.1621266007423401,1510,1510,67.64543914794922,-0.017853617668151855
3359822.855,634014509,219.32,103149319,0.018131354823708534,-0.1556175947189331,1510,1510,67.58919525146484,-0.012253385968506336
3359922.855,634014509,219.32,103149319,0.020948298275470734,-0.15359953045845032,1510,1510,67.58053588867188,-0.005019573029130697
3360022.855,634014510,219.32,103149318,0.04233938455581665,-0.1647145301103592,1510,1510,67.54851531982422,-0.0028557605110108852
3360122.855,634014510,219.32,103149318,0.04650403931736946,-0.16984790563583374,1510,1510,67.47144317626953,-0.007332942448556423
3360222.855,634014510,219.31,103149319,0.036143504083156586,-0.16455459594726562,1510,1510,67.38420104980469,-0.012145685963332653
3360322.855,634014510,219.31,103149319,0.029452279210090637,-0.1704392433166504,1510,1510,67.29046630859375,-0.014357677660882473
3360422.855,634014510,219.31,103149318,0.015065375715494156,-0.16760152578353882,1510,1510,67.2253646850586,-0.01269809901714325
3360522.855,634014510,219.31,103149318,0.020291225984692574,-0.16284438967704773,1510,1510,67.18037414550781,-0.009414096362888813
3360622.855,634014510,219.3,103149319,0.03197535127401352,-0.17246787250041962,1510,1510,67.12955474853516,-0.006812394596636295
3360722.855,634014510,219.3,103149319,0.0392562597990036,-0.163766011595726,1708,1634,67.06570434570312,-0.006556382402777672
3360822.855,634014511,219.3,103149318,-0.11139723658561707,-0.0951375886797905,1708,1634,67.08500671386719,-0.005583469290286303
3360922.855,634014511,219.3,103149318,0.11902473866939545,-0.09108854830265045,1510,1510,67.242431640625,0.021629979833960533
3361022.855,634014511,219.3,103149318,0.06520205736160278,-0.13315565884113312,1510,1510,67.36986541748047,0.03169219195842743
3361122.855,634014511,219.3,103149318,0.08057102560997009,-0.17277511954307556,1510,1510,67.49104309082031,0.022149210795760155
3361222.855,634014511,219.3,103149318,0.01050681620836258,-0.12360833585262299,1510,1510,67.65113830566406,0.02289646491408348
3361322.855,634014511,219.3,103149318,0.020215647295117378,-0.1612372249364853,1510,1510,67.86866760253906,0.031643886119127274
3361422.855,634014511,219.29,103149318,0.0004773830296471715,-0.2042151689529419,1510,1510,68.08765411376953,0.037833742797374725
3361522.855,634014511,219.29,103149318,0.0377582386136055,-0.17704010009765625,1510,1510,68.2939224243164,0.03582942485809326
3361622.855,634014511,219.29,103149318,0.03139827772974968,-0.16999605298042297,1510,1510,68.48284912109375,0.029971573501825333
3361722.855,634014511,219.29,103149318,0.03725186735391617,-0.1759723722934723,1510,1510,68.6339340209961,0.02591482177376747
3361822.855,634014511,219.29,103149318,0.04423040896654129,-0.1425590217113495,1510,1510,68.78020477294922,0.024675536900758743
3361922.855,634014511,219.29,103149318,0.042449574917554855,-0.16085638105869293,1510,1510,68.9416732788086,0.024578358978033066
3362022.855,634014511,219.28,103149318,0.032762810587882996,-0.16093291342258453,1510,1510,69.11193084716797,0.025655074045062065
3362122.855,634014511,219.28,103149318,0.022769110277295113,-0.14205843210220337,1510,1510,69.29296112060547,0.028859708458185196
3362222.855,634014511,219.28,103149318,0.031353503465652466,-0.1627623438835144,1510,1510,69.47850036621094,0.031839724630117416
3362322.855,634014511,219.28,103149318,0.04329420626163483,-0.17943522334098816,1510,1510,69.6502456665039,0.030492831021547318
3362422.855,634014511,219.28,103149318,0.04766692593693733,-0.18196061253547668,1510,1510,69.7916488647461,0.023867081850767136
3362522.855,634014511,219.28,103149318,0.026455039158463478,-0.18137501180171967,1510,1510,69.90113830566406,0.017081867903470993
3362622.855,634014511,219.28,103149318,-0.000018844599253498018,-0.16555920243263245,1510,1510,70.03510284423828,0.017435671761631966
3362722.855,634014511,219.28,103149318,0.008610889315605164,-0.13966894149780273,1510,1510,70.20600128173828,0.02543104626238346
3362822.855,634014511,219.28,103149318,0.04558849334716797,-0.1669895052909851,1510,1510,70.37845611572266,0.03133644908666611
3362922.855,634014511,219.28,103149318,0.06544654071331024,-0.17677009105682373,1510,1510,70.53770446777344,0.02806038409471512
3363022.855,634014511,219.28,103149318,0.04678161069750786,-0.16660213470458984,1510,1510,70.6644287109375,0.020666850730776787
3363122.855,634014511,219.28,103149318,0.02764016203582287,-0.16668003797531128,1510,1510,70.78031921386719,0.01831141486763954
3363222.855,634014511,219.28,103149319,0.021642684936523438,-0.17097601294517517,1510,1510,70.9033203125,0.019924044609069824
3363322.855,634014511,219.28,103149319,0.024994254112243652,-0.17538408935070038,1510,1510,71.02168273925781,0.02055724896490574
3363422.855,634014511,219.28,103149319,0.021463457494974136,-0.16610047221183777,1510,1510,71.16227722167969,0.020737478509545326
3363522.855,634014511,219.28,103149319,0.02074248716235161,-0.15785335004329681,1510,1510,71.31101989746094,0.021292012184858322
3363622.855,634014511,219.28,103149319,0.03300280123949051,-0.15389910340309143,1510,1510,71.45027923583984,0.022730108350515366
3363722.855,634014511,219.28,103149319,0.053720373660326004,-0.1705615520477295,1510,1510,71.5774917602539,0.02268436923623085
3363822.855,634014511,219.28,103149320,0.05324922874569893,-0.18875843286514282,1510,1510,71.6921615600586,0.019128352403640747
3363922.855,634014511,219.28,103149320,0.037688057869672775,-0.1686818152666092,1510,1510,71.79881286621094,0.014627021737396717
3364022.855,634014511,219.28,103149320,0.012896102853119373,-0.16203860938549042,1510,1510,71.90540313720703,0.01438419334590435
3364122.855,634014511,219.28,103149320,0.0049345968291163445,-0.15358977019786835,1510,1510,72.062744140625,0.019185733050107956
3364222.855,634014511,219.27,103149320,0.031110506504774094,-0.15701954066753387,1510,1510,72.2191162109375,0.023752976208925247
3364322.855,634014511,219.27,103149320,0.05019952356815338,-0.17579543590545654,1510,1510,72.34053039550781,0.021981414407491684
3364422.855,634014512,219.28,103149320,0.051481958478689194,-0.17251206934452057,1510,1510,72.43087005615234,0.015313299372792244
3364522.855,634014512,219.28,103149320,0.02216893993318081,-0.16543112695217133,1510,1510,72.52674865722656,0.011279021389782429
3364622.855,634014511,219.27,103149321,0.016071513295173645,-0.16193510591983795,1510,1510,72.63818359375,0.014170258305966854
3364722.855,634014511,219.27,103149321,0.033658210188150406,-0.16333222389221191,1510,1510,72.72652435302734,0.018635833635926247
3364822.855,634014511,219.28,103149321,0.042198922485113144,-0.16978296637535095,1510,1510,72.79075622558594,0.018696386367082596
3364922.855,634014511,219.28,103149321,0.03218237683176994,-0.16266298294067383,1510,1510,72.8596420288086,0.015559554100036621
3365022.855,634014512,219.28,103149322,0.022744091227650642,-0.1563645750284195,1510,1510,72.93567657470703,0.014789870008826256
3365122.855,634014512,219.28,103149322,0.029021840542554855,-0.169204980134964,1510,1510,73.01463317871094,0.015390928834676743
3365222.855,634014511,219.28,103149323,0.034223638474941254,-0.18019609153270721,1510,1510,73.08120727539062,0.014558255672454834
3365322.855,634014511,219.28,103149323,0.0328245684504509,-0.1733316332101822,1510,1510,73.14630889892578,0.012439895421266556
3365422.855,634014512,219.28,103149323,0.02541888877749443,-0.162862628698349,1510,1510,73.25713348388672,0.012871162965893745
3365522.855,634014512,219.28,103149323,0.01992395520210266,-0.1549103558063507,1510,1510,73.34979248046875,0.014987668953835964
3365622.855,634014512,219.28,103149324,0.028691720217466354,-0.1567881852388382,1510,1510,73.4500961303711,0.016453677788376808
3365722.855,634014512,219.28,103149324,0.04331909865140915,-0.16566182672977448,1510,1510,73.54014587402344,0.015376259572803974
3365822.855,634014512,219.28,103149325,0.03764671832323074,-0.17922036349773407,1510,1510,73.60527038574219,0.011469039134681225
3365922.855,634014512,219.28,103149325,0.020130956545472145,-0.16839227080345154,1510,1510,73.68956756591797,0.009290248155593872
3366022.855,634014512,219.28,103149325,0.015762005001306534,-0.15615995228290558,1510,1510,73.787841796875,0.011482409201562405
3366122.855,634014512,219.28,103149325,0.030813347548246384,-0.15629538893699646,1510,1510,73.88849639892578,0.015643419697880745
3366222.855,634014512,219.29,103149326,0.04384232684969902,-0.16418495774269104,1510,1510,73.9689712524414,0.01596522517502308
3366322.855,634014512,219.29,103149326,0.04688433185219765,-0.16647250950336456,1510,1510,74.0287094116211,0.012248505838215351
3366422.855,634014512,219.29,103149327,0.030850380659103394,-0.15855810046195984,1510,1510,74.09280395507812,0.009021705947816372
3366522.855,634014512,219.29,103149327,0.021408021450042725,-0.16094478964805603,1510,1510,74.16357421875,0.010456077754497528
3366622.855,634014512,219.29,103149328,0.03188812732696533,-0.1715255081653595,1510,1510,74.22993469238281,0.012722048908472061
3366722.855,634014512,219.29,103149328,0.03741638362407684,-0.17402155697345734,1510,1510,74.27693176269531,0.012321182526648045
3366822.855,634014512,219.29,103149329,0.02997361309826374,-0.1604630947113037,1510,1510,74.31486511230469,0.010112689808011055
3366922.855,634014512,219.29,103149329,0.023789644241333008,-0.15491637587547302,1510,1510,74.3899917602539,0.009900626726448536
3367022.855,634014512,219.3,103149330,0.02893640659749508,-0.1618482768535614,1510,1510,74.48487854003906,0.012027720920741558
3367122.855,634014512,219.3,103149330,0.03638654202222824,-0.16554471850395203,1510,1510,74.56226348876953,0.012090429663658142
3367222.855,634014512,219.3,103149331,0.03359952196478844,-0.17630065977573395,1510,1510,74.63069152832031,0.009424461983144283
3367322.855,634014512,219.3,103149331,0.029246658086776733,-0.17667129635810852,1510,1510,74.70011138916016,0.00782180204987526
3367422.855,634014512,219.3,103149331,0.020339615643024445,-0.1647445559501648,1510,1510,74.77111053466797,0.00881789531558752
3367522.855,634014512,219.3,103149331,0.02848440781235695,-0.15890198945999146,1510,1510,74.8576889038086,0.011175996623933315
3367622.855,634014512,219.31,103149332,0.03404901176691055,-0.15761595964431763,1510,1510,74.94312286376953,0.012182528153061867
3367722.855,634014512,219.31,103149332,0.04467795789241791,-0.16737960278987885,1510,1510,75.00660705566406,0.009821586310863495
3367822.855,634014512,219.3,103149334,0.026730289682745934,-0.1713932454586029,1510,1510,75.0518798828125,0.006883813533931971
3367922.855,634014512,219.3,103149334,0.02118394896388054,-0.16475987434387207,1510,1510,75.1144027709961,0.006761807017028332
3368022.855,634014512,219.31,103149335,0.016039367765188217,-0.16047300398349762,1510,1510,75.19441223144531,0.010038832202553749
3368122.855,634014512,219.31,103149335,0.034700579941272736,-0.17051029205322266,1510,1510,75.28791809082031,0.010743527673184872
3368222.855,634014512,219.31,103149335,0.036738745868206024,-0.1640978455543518,1510,1510,75.35846710205078,0.008617416955530643
3368322.855,634014512,219.31,103149335,0.025139305740594864,-0.15865497291088104,1510,1510,75.41862487792969,0.006774540524929762
3368422.855,634014512,219.31,103149337,0.01697676256299019,-0.15121692419052124,1510,1510,75.50445556640625,0.00769449956715107
3368522.855,634014512,219.31,103149337,0.0363193042576313,-0.1668727546930313,1510,1510,75.58470153808594,0.009495947510004044
3368622.855,634014512,219.32,103149338,0.03664661943912506,-0.1805257648229599,1510,1510,75.63267517089844,0.008865078911185265
3368722.855,634014512,219.32,103149338,0.027366310358047485,-0.16997966170310974,1505,1502,75.68093872070312,0.006325345952063799
3368822.855,634014512,219.32,103149339,0.020767712965607643,-0.1577344387769699,1510,1510,75.75496673583984,0.006134283263236284
3368922.855,634014512,219.32,103149339,0.02128203958272934,-0.1477397382259369,1510,1510,75.82796478271484,0.008452124893665314
3369022.855,634014512,219.32,103149340,0.03468252718448639,-0.16218724846839905,1478,1459,75.89521026611328,0.00931211095303297
3369122.855,634014512,219.32,103149340,0.03916207328438759,-0.16214889287948608,1410,1349,75.94718933105469,0.007574726827442646
3369222.855,634014512,219.32,103149342,0.1610536128282547,-0.17578232288360596,1510,1510,75.85405731201172,-0.0035221974831074476
3369322.855,634014512,219.32,103149342,-0.009453997947275639,-0.13640478253364563,1510,1510,75.69954681396484,-0.026248419657349586
3369422.855,634014511,219.33,103149343,-0.020841186866164207,-0.22195088863372803,1510,1510,75.62506866455078,-0.022357836365699768
3369522.855,634014511,219.33,103149343,0.06388816237449646,-0.13740921020507812,1510,1510,75.58905029296875,-0.013951693661510944
3369622.855,634014511,219.33,103149345,0.0649518147110939,-0.14439666271209717,1510,1510,75.5204086303711,-0.015043617226183414
3369722.855,634014511,219.33,103149345,0.06203586980700493,-0.1855240762233734,1510,1510,75.4161148071289,-0.022224988788366318
3369822.855,634014511,219.33,103149347,0.02969190664589405,-0.11326251178979874,1631,1585,75.29424285888672,-0.026231154799461365
3369922.855,634014511,219.33,103149347,0.02416621521115303,-0.15556418895721436,1510,1510,75.18878173828125,-0.024521641433238983
3370022.855,634014510,219.33,103149347,-0.10354767739772797,-0.20322296023368835,1510,1510,75.1841812133789,-0.013019414618611336
3370122.855,634014510,219.33,103149347,0.05010607838630676,-0.1859259009361267,1510,1510,75.1556396484375,-0.003784049302339554
3370222.855,634014510,219.34,103149349,-0.022202741354703903,-0.1170537993311882,1510,1510,75.11644744873047,-0.006359327584505081
3370322.855,634014510,219.34,103149349,0.05158106982707977,-0.190760999917984,1510,1510,75.07855224609375,-0.006726128049194813
3370422.855,634014510,219.34,103149350,0.030453521758317947,-0.14927491545677185,1575,1550,75.03279113769531,-0.006205480545759201
3370522.855,634014510,219.34,103149350,0.08710238337516785,-0.15320441126823425,1510,1510,74.9709243774414,-0.008046749979257584
3370622.855,634014509,219.35,103149350,-0.0996878370642662,-0.19795891642570496,1510,1510,74.96222686767578,-0.0038735470734536648
3370722.855,634014509,219.35,103149350,0.006211134139448404,-0.181668221950531,1510,1510,74.96678924560547,0.0013864000793546438
3370822.855,634014509,219.35,103149351,-0.02717660740017891,-0.11537683010101318,1510,1510,74.9713134765625,0.0037162755616009235
3370922.855,634014509,219.35,103149351,0.03422633185982704,-0.1892663836479187,1510,1510,74.9806137084961,0.0046980539336800575
3371022.855,634014509,219.36,103149351,0.05040484294295311,-0.17931385338306427,1510,1510,74.99600219726562,0.0011597797274589539
3371122.855,634014509,219.36,103149351,0.0812838152050972,-0.1482328474521637,1510,1510,75.0060806274414,-0.003846484934911132
3371222.855,634014508,219.36,103149351,0.036315783858299255,-0.17804883420467377,1510,1510,75.01238250732422,-0.0035878238268196583
3371322.855,634014508,219.36,103149351,0.045179013162851334,-0.16859418153762817,1510,1510,75.0370101928711,0.0012160901678726077
3371422.855,634014508,219.36,103149352,0.04704108089208603,-0.1330106556415558,1510,1510,75.09520721435547,0.004189289174973965
3371522.855,634014508,219.36,103149352,0.030206240713596344,-0.19291314482688904,1510,1510,75.13359069824219,0.0017174477688968182
3371622.855,634014507,219.37,103149352,0.03582391142845154,-0.16706648468971252,1510,1510,75.12419891357422,-0.002642616629600525
3371722.855,634014507,219.37,103149352,0.011874173767864704,-0.13610613346099854,1510,1510,75.1197280883789,-0.004604579880833626
3371822.855,634014507,219.37,103149352,0.023906556889414787,-0.17590703070163727,1510,1510,75.13107299804688,-0.0025834650732576847
3371922.855,634014507,219.37,103149352,0.03995770961046219,-0.16992944478988647,1510,1510,75.14490509033203,-0.000820363755337894
3372022.855,634014507,219.38,103149353,0.06085745617747307,-0.17173835635185242,1510,1510,75.14691162109375,-0.0016695753438398242
3372122.855,634014507,219.38,103149353,0.031088991090655327,-0.17263777554035187,1510,1510,75.15372467041016,-0.0025274523068219423
3372222.855,634014506,219.38,103149353,0.04325186088681221,-0.15955814719200134,1510,1510,75.18273162841797,-0.0005604373291134834
3372322.855,634014506,219.38,103149353,0.03678092360496521,-0.15138636529445648,1510,1510,75.21514892578125,0.001583700068295002
3372422.855,634014506,219.39,103149354,0.04146891459822655,-0.17595048248767853,1510,1510,75.20450592041016,-0.0010120515944436193
3372522.855,634014506,219.39,103149354,0.02484610117971897,-0.16436845064163208,1510,1510,75.17987060546875,-0.005022083409130573
3372622.855,634014506,219.39,103149354,0.018468061462044716,-0.16018548607826233,1510,1510,75.17536926269531,-0.005189703777432442
3372722.855,634014506,219.39,103149354,0.007829936221241951,-0.165143221616745,1510,1510,75.20497131347656,-0.000996217131614685
3372822.855,634014505,219.4,103149355,0.03985050320625305,-0.1612473428249359,1510,1510,75.22687530517578,0.00329616479575634
3372922.855,634014505,219.4,103149355,0.05842214822769165,-0.1725543737411499,1510,1510,75.24729919433594,0.0023095356300473213
3373022.855,634014505,219.4,103149355,0.04976315051317215,-0.17207740247249603,1510,1510,75.24201965332031,-0.0032597570680081844
3373122.855,634014505,219.4,103149355,0.02286655828356743,-0.1540151834487915,1510,1510,75.22547149658203,-0.005912890657782555
3373222.855,634014505,219.4,103149356,0.018916472792625427,-0.15281374752521515,1510,1510,75.25289916992188,-0.0031077393796294928
3373322.855,634014505,219.4,103149356,0.023368246853351593,-0.1745201200246811,1510,1510,75.27316284179688,0.00017029115406330675
3373422.855,634014504,219.4,103149356,0.036735959351062775,-0.16798603534698486,1510,1510,75.28564453125,0.0005789253627881408
3373522.855,634014504,219.4,103149356,0.03370026871562004,-0.168610081076622,1510,1510,75.296142578125,-0.0014653014950454235
3373622.855,634014504,219.4,103149356,0.032162588089704514,-0.16443459689617157,1510,1510,75.30259704589844,-0.002559992717579007
3373722.855,634014504,219.4,103149356,0.03352898359298706,-0.15004906058311462,1510,1510,75.30545806884766,-0.0010207598097622395
3373822.855,634014504,219.41,103149356,0.051892559975385666,-0.16901953518390656,1510,1510,75.30512237548828,-0.0006663022213615477
3373922.855,634014504,219.41,103149356,0.04110284149646759,-0.17755083739757538,1510,1510,75.28702545166016,-0.003118599532172084
3374022.855,634014504,219.41,103149358,0.03082767128944397,-0.17181497812271118,1510,1510,75.27691650390625,-0.004517830442637205
3374122.855,634014504,219.41,103149358,0.011461133137345314,-0.1586027294397354,1510,1510,75.2818832397461,-0.0019413451664149761
3374222.855,634014503,219.41,103149358,0.028554216027259827,-0.16204003989696503,1510,1510,75.2824478149414,0.001690533710643649
3374322.855,634014503,219.41,103149358,0.04375568777322769,-0.16671425104141235,1510,1510,75.28520965576172,0.0008717805612832308
3374422.855,634014503,219.41,103149359,0.04450531676411629,-0.1659121811389923,1510,1510,75.28863525390625,-0.0030773577746003866
3374522.855,634014503,219.41,103149359,0.03241056948900223,-0.16420519351959229,1510,1510,75.2450180053711,-0.005843671038746834
3374622.855,634014503,219.42,103149359,0.01752430945634842,-0.15811005234718323,1510,1510,75.1966552734375,-0.004264536779373884
3374722.855,634014503,219.42,103149359,0.018984602764248848,-0.16783477365970612,1510,1510,75.2032470703125,0.00010982264939229935
3374822.855,634014503,219.42,103149359,0.03996442258358002,-0.17361751198768616,1510,1510,75.22188568115234,0.000999864423647523
3374922.855,634014503,219.42,103149359,0.03960689529776573,-0.1667466163635254,1510,1510,75.21369934082031,-0.00172947917599231
3375022.855,634014502,219.42,103149359,0.027069926261901855,-0.16693156957626343,1510,1510,75.20841217041016,-0.003975588828325272
3375122.855,634014502,219.42,103149359,0.029963448643684387,-0.15348848700523376,1510,1510,75.19535064697266,-0.003406679257750511
3375222.855,634014502,219.41,103149360,0.02945110946893692,-0.15934742987155914,1510,1510,75.16470336914062,-0.0016927961260080338
3375322.855,634014502,219.41,103149360,0.03750256448984146,-0.16438078880310059,1510,1510,75.13960266113281,-0.0018927964847534895
3375422.855,634014502,219.42,103149361,0.030605696141719818,-0.17730876803398132,1510,1510,75.14425659179688,-0.003326921723783016
3375522.855,634014502,219.42,103149361,0.02474513277411461,-0.16671054065227509,1510,1510,75.15403747558594,-0.0035915919579565525
3375622.855,634014502,219.41,103149362,0.026323340833187103,-0.1558123081922531,1510,1510,75.16996002197266,-0.0007787077920511365
3375722.855,634014502,219.41,103149362,0.03629918023943901,-0.16943052411079407,1510,1510,75.18031311035156,0.00007102524250512943
3375822.855,634014501,219.42,103149362,0.043886881321668625,-0.16710922122001648,1510,1510,75.14749908447266,-0.0027498258277773857
3375922.855,634014501,219.42,103149362,0.0299956314265728,-0.17165206372737885,1510,1510,75.1142578125,-0.006176520138978958
3376022.855,634014501,219.41,103149362,0.019600193947553635,-0.15323112905025482,1510,1510,75.10930633544922,-0.00472615472972393
3376122.855,634014501,219.41,103149362,0.02976258099079132,-0.16166254878044128,1510,1510,75.13224029541016,-0.0011258679442107677
3376222.855,634014501,219.42,103149363,0.036314237862825394,-0.17332327365875244,1510,1510,75.14116668701172,0.00038520299131050706
3376322.855,634014501,219.42,103149363,0.043687790632247925,-0.16895397007465363,1510,1510,75.13214874267578,-0.0020400299690663815
3376422.855,634014501,219.41,103149363,0.02858252264559269,-0.16741372644901276,1510,1510,75.10385131835938,-0.005100483540445566
3376522.855,634014501,219.41,103149363,0.021395523101091385,-0.1578722596168518,1510,1510,75.08295440673828,-0.005205086898058653
3376622.855,634014500,219.41,103149363,0.029410410672426224,-0.16462565958499908,1510,1510,75.0827865600586,-0.002952182199805975
3376722.855,634014500,219.41,103149363,0.03907763957977295,-0.17716313898563385,1510,1510,75.08734893798828,-0.0016253882786259055
3376822.855,634014500,219.4,103149364,0.043728530406951904,-0.1735156774520874,1510,1510,75.0797119140625,-0.002905824687331915
3376922.855,634014500,219.4,103149364,0.023763267323374748,-0.15939727425575256,1510,1510,75.06273651123047,-0.003812688635662198
3377022.855,634014500,219.4,103149363,0.016335228458046913,-0.15816330909729004,1510,1510,75.04429626464844,-0.002525358460843563
3377122.855,634014500,219.4,103149363,0.029718628153204918,-0.16358011960983276,1510,1510,75.01048278808594,-0.0014797418843954802
3377222.855,634014500,219.39,103149364,0.03439810499548912,-0.16818378865718842,1510,1510,74.97572326660156,-0.0031677826773375273
3377322.855,634014500,219.39,103149364,0.033937033265829086,-0.16674306988716125,1510,1510,74.97526550292969,-0.005716197192668915
3377422.855,634014500,219.39,103149363,0.021279796957969666,-0.1567247062921524,1510,1510,74.97733306884766,-0.005802263505756855
3377522.855,634014500,219.39,103149363,0.021557651460170746,-0.1621987670660019,1510,1510,74.971435546875,-0.00198734225705266
3377622.855,634014499,219.38,103149363,0.03286534920334816,-0.17052313685417175,1510,1510,74.96905517578125,0.0002853609621524811
3377722.855,634014499,219.38,103149363,0.04476669430732727,-0.17261222004890442,1510,1510,74.94334411621094,-0.0018240746576339006
3377822.855,634014499,219.39,103149364,0.029449177905917168,-0.16970497369766235,1510,1510,74.90174102783203,-0.005595977883785963
3377922.855,634014499,219.39,103149364,0.02313682623207569,-0.15334051847457886,1510,1510,74.8639907836914,-0.005897044204175472
3378022.855,634014498,219.38,103149364,0.0154464952647686,-0.15841208398342133,1510,1510,74.8296890258789,-0.0034309104084968567
3378122.855,634014498,219.38,103149364,0.03505488857626915,-0.16879919171333313,1510,1510,74.81160736083984,-0.0019940128549933434
3378222.855,634014498,219.37,103149364,0.037447914481163025,-0.17206522822380066,1510,1510,74.81251525878906,-0.002468084916472435
3378322.855,634014498,219.37,103149364,0.032314375042915344,-0.16605345904827118,1510,1510,74.79901123046875,-0.004147698637098074
3378422.855,634014498,219.36,103149363,0.029704317450523376,-0.156229168176651,1510,1510,74.76578521728516,-0.003832785412669182
3378522.855,634014498,219.36,103149363,0.036320608109235764,-0.16434210538864136,1510,1510,74.73487854003906,-0.003052694723010063
3378622.855,634014498,219.35,103149362,0.03457662835717201,-0.16035854816436768,1510,1510,74.71732330322266,-0.003311334177851677
3378722.855,634014498,219.35,103149362,0.026446744799613953,-0.16899999976158142,1510,1510,74.70272064208984,-0.005047480575740337
3378822.855,634014497,219.34,103149361,0.023170312866568565,-0.1712919920682907,1510,1510,74.6910400390625,-0.005577174946665764
3378922.855,634014497,219.34,103149361,0.022093288600444794,-0.16057229042053223,1510,1510,74.67178344726562,-0.0036247079260647297
3379022.855,634014497,219.33,103149360,0.03316090628504753,-0.1644609570503235,1510,1510,74.6505126953125,-0.0010772977257147431
3379122.855,634014497,219.33,103149360,0.049664147198200226,-0.17008700966835022,1510,1510,74.6255874633789,-0.00228903884999454
3379222.855,634014497,219.33,103149360,0.0389757975935936,-0.1580633521080017,1510,1510,74.6010971069336,-0.00567717244848609
3379322.855,634014497,219.33,103149360,0.02333243563771248,-0.16642902791500092,1510,1510,74.57106018066406,-0.006795965600758791
3379422.855,634014497,219.31,103149359,0.01881476864218712,-0.1656671166419983,1510,1510,74.55821228027344,-0.004729721695184708
3379522.855,634014497,219.31,103149359,0.02580573968589306,-0.16756126284599304,1510,1510,74.55907440185547,-0.002011400181800127
3379622.855,634014497,219.32,103149359,0.035561662167310715,-0.1726292371749878,1510,1510,74.53446197509766,-0.002295880811288953
3379722.855,634014497,219.32,103149359,0.03401658311486244,-0.1630510687828064,1510,1510,74.49859619140625,-0.004594392608851194
3379822.855,634014497,219.3,103149358,0.021723778918385506,-0.15798406302928925,1510,1510,74.45852661132812,-0.005273573100566864
3379922.855,634014497,219.3,103149358,0.033548980951309204,-0.1644313633441925,1510,1510,74.45085906982422,-0.004167083650827408
3380022.855,634014497,219.29,103149357,0.032415278255939484,-0.16745932400226593,1510,1510,74.44290924072266,-0.003583243116736412
3380122.855,634014497,219.29,103149357,0.029215948656201363,-0.16095544397830963,1510,1510,74.43656921386719,-0.004776261281222105
3380222.855,634014497,219.3,103149358,0.023334305733442307,-0.16706380248069763,1510,1510,74.4405517578125,-0.0048506734892725945
3380322.855,634014497,219.3,103149358,0.028278745710849762,-0.16425475478172302,1510,1510,74.43690490722656,-0.0038399554323405027
3380422.855,634014497,219.28,103149357,0.024149209260940552,-0.1631487011909485,1510,1510,74.41590118408203,-0.0026278102304786444
3380522.855,634014497,219.28,103149357,0.037160586565732956,-0.1635553389787674,1510,1510,74.38981628417969,-0.0033414035569876432
3380622.855,634014496,219.28,103149357,0.037884291261434555,-0.16627511382102966,1510,1510,74.37810516357422,-0.005771120544523001
3380722.855,634014496,219.28,103149357,0.029497873038053513,-0.1580982208251953,1510,1510,74.34578704833984,-0.006972888484597206
3380822.855,634014497,219.28,103149357,0.025792621076107025,-0.16142378747463226,1510,1510,74.31742095947266,-0.005029145162552595
3380922.855,634014497,219.28,103149357,0.03036806359887123,-0.1692267805337906,1510,1510,74.31167602539062,-0.0020726744551211596
3381022.855,634014497,219.27,103149357,0.03363543748855591,-0.16740818321704865,1510,1510,74.30049133300781,-0.0021462838631123304
3381122.855,634014497,219.27,103149357,0.03528326749801636,-0.17043015360832214,1510,1510,74.2799301147461,-0.004996946081519127
3381222.855,634014496,219.26,103149356,0.029124733060598373,-0.16084662079811096,1510,1510,74.2559585571289,-0.006755813490599394
3381322.855,634014496,219.26,103149356,0.02338414452970028,-0.15907453000545502,1510,1510,74.21821594238281,-0.0060393004678189754
3381422.855,634014497,219.26,103149355,0.031208818778395653,-0.1684095710515976,1510,1510,74.19438171386719,-0.003947119694203138
3381522.855,634014497,219.26,103149355,0.03944084793329239,-0.1697046458721161,1510,1510,74.18124389648438,-0.0035156370140612125
3381622.855,634014496,219.25,103149355,0.031229805201292038,-0.16939711570739746,1510,1510,74.16708374023438,-0.004878115840256214
3381722.855,634014496,219.25,103149355,0.026345115154981613,-0.16256806254386902,1510,1510,74.14949035644531,-0.005025352351367474
3381822.855,634014496,219.25,103149354,0.024152847006917,-0.15924996137619019,1510,1510,74.1383285522461,-0.003788919188082218
3381922.855,634014496,219.25,103149354,0.038430213928222656,-0.17016950249671936,1510,1510,74.1162338256836,-0.00422167731449008
3382022.855,634014496,219.24,103149353,0.029971374198794365,-0.16804513335227966,1510,1510,74.05718231201172,-0.005825084168463945
3382122.855,634014496,219.24,103149353,0.032622408121824265,-0.16534826159477234,1510,1510,73.99449920654297,-0.006627395749092102
3382222.855,634014496,219.23,103149352,0.024376031011343002,-0.16916155815124512,1510,1510,73.97505187988281,-0.005496234633028507
3382322.855,634014496,219.23,103149352,0.026309993118047714,-0.16011793911457062,1510,1510,73.96353912353516,-0.0033170045353472233
3382422.855,634014496,219.23,103149352,0.03882580250501633,-0.17388977110385895,1510,1510,73.9527359008789,-0.0024022520519793034
3382522.855,634014496,219.23,103149352,0.03576973080635071,-0.16904352605342865,1510,1510,73.94635009765625,-0.004582839552313089
3382622.855,634014496,219.23,103149351,0.022758126258850098,-0.1630198061466217,1510,1510,73.90208435058594,-0.006926816888153553
3382722.855,634014496,219.23,103149351,0.021602189168334007,-0.16491931676864624,1510,1510,73.86174011230469,-0.006795201916247606
3382822.855,634014496,219.23,103149351,0.026031799614429474,-0.16998133063316345,1510,1510,73.8462142944336,-0.004225638695061207
3382922.855,634014496,219.23,103149351,0.036904364824295044,-0.16751360893249512,1510,1510,73.80481719970703,-0.003540254198014736
3383022.855,634014496,219.23,103149352,0.034518808126449585,-0.1634940207004547,1510,1510,73.75922393798828,-0.004720829427242279
3383122.855,634014496,219.23,103149352,0.03173743188381195,-0.16491056978702545,1510,1510,73.7300033569336,-0.005120329093188047
3383222.855,634014496,219.22,103149351,0.02702159434556961,-0.15730932354927063,1510,1510,73.71773529052734,-0.005345432087779045
3383322.855,634014496,219.22,103149351,0.03389068692922592,-0.16597673296928406,1510,1510,73.71598815917969,-0.0047909896820783615
3383422.855,634014496,219.22,103149352,0.0336831770837307,-0.16788065433502197,1510,1510,73.71223449707031,-0.005512523930519819
3383522.855,634014496,219.22,103149352,0.027737818658351898,-0.16408692300319672,1510,1510,73.69356536865234,-0.006566452328115702
3383622.855,634014496,219.22,103149352,0.026643680408596992,-0.16698315739631653,1510,1510,73.65630340576172,-0.006161937955766916
3383722.855,634014496,219.22,103149352,0.02597595751285553,-0.1608312577009201,1510,1510,73.61934661865234,-0.004095913376659155
3383822.855,634014496,219.22,103149354,0.0349959135055542,-0.1698368489742279,1510,1510,73.59371948242188,-0.0032334511633962393
3383922.855,634014496,219.22,103149354,0.04045233130455017,-0.16223083436489105,1510,1510,73.56278991699219,-0.004715557210147381
3384022.855,634014495,219.22,103149354,0.03264063969254494,-0.16150206327438354,1510,1510,73.5047378540039,-0.0067061553709208965
3384122.855,634014495,219.22,103149354,0.02140742540359497,-0.16761267185211182,1510,1510,73.46322631835938,-0.007286276202648878
3384222.855,634014495,219.21,103149355,0.02318146452307701,-0.1648644506931305,1510,1510,73.46681213378906,-0.005501305218786001
3384322.855,634014495,219.21,103149355,0.026501674205064774,-0.17289534211158752,1510,1510,73.46627044677734,-0.0040155877359211445
3384422.855,634014495,219.21,103149355,0.03748844191431999,-0.16804833710193634,1510,1510,73.44287872314453,-0.004721985198557377
3384522.855,634014495,219.21,103149355,0.035009391605854034,-0.16089367866516113,1510,1510,73.42948913574219,-0.0064078690484166145
3384622.855,634014495,219.21,103149355,0.030391599982976913,-0.16266323626041412,1510,1510,73.42353057861328,-0.006331452168524265
3384722.855,634014495,219.21,103149355,0.02893100678920746,-0.16524961590766907,1510,1510,73.42694091796875,-0.0053365216590464115
3384822.855,634014494,219.21,103149355,0.03602587431669235,-0.1648554801940918,1510,1510,73.40074157714844,-0.004988817032426596
3384922.855,634014494,219.21,103149355,0.03314705938100815,-0.1663425713777542,1510,1510,73.37000274658203,-0.005973640363663435
3385022.855,634014495,219.21,103149356,0.03013346716761589,-0.1656530201435089,1510,1510,73.33614349365234,-0.0062565430998802185
3385122.855,634014495,219.21,103149356,0.03307542949914932,-0.16128140687942505,1510,1510,73.31727600097656,-0.0051499018445611
3385222.855,634014494,219.2,103149356,0.03288089483976364,-0.15979477763175964,1510,1510,73.28411865234375,-0.004677601158618927
3385322.855,634014494,219.2,103149356,0.04209904745221138,-0.1620485484600067,1510,1510,73.24873352050781,-0.005455802194774151
3385422.855,634014494,219.21,103149358,0.03208273649215698,-0.158145472407341,1510,1510,73.22586059570312,-0.007318972144275904
3385522.855,634014494,219.21,103149358,0.018079033121466637,-0.16490718722343445,1510,1510,73.15471649169922,-0.007226439192891121
3385622.855,634014494,219.19,103149358,0.023692768067121506,-0.16689226031303406,1510,1510,73.09964752197266,-0.0056067295372486115
3385722.855,634014494,219.19,103149358,0.03454967588186264,-0.17407435178756714,1510,1510,73.08250427246094,-0.0038778462912887335
3385822.855,634014494,219.2,103149358,0.03740709275007248,-0.16678600013256073,1510,1510,73.07086181640625,-0.00489793810993433
3385922.855,634014494,219.2,103149358,0.033917784690856934,-0.1609436571598053,1510,1510,73.05826568603516,-0.0069540864787995815
3386022.855,634014494,219.2,103149360,0.03259727358818054,-0.16492101550102234,1510,1510,73.03246307373047,-0.007562291342765093
3386122.855,634014494,219.2,103149360,0.024583090096712112,-0.17003850638866425,1510,1510,73.01485443115234,-0.006276519037783146
3386222.855,634014494,219.19,103149360,0.02639881893992424,-0.16995282471179962,1510,1510,73.0011978149414,-0.005127797368913889
3386322.855,634014494,219.19,103149360,0.030668970197439194,-0.1692596673965454,1510,1510,72.98687744140625,-0.005381979048252106
3386422.855,634014494,219.19,103149361,0.02615664154291153,-0.1598099172115326,1510,1510,72.94749450683594,-0.006652656942605972
3386522.855,634014494,219.19,103149361,0.026932399719953537,-0.16472841799259186,1510,1510,72.89942169189453,-0.006937961559742689
3386622.855,634014494,219.2,103149361,0.03562217950820923,-0.16145886480808258,1510,1510,72.8454818725586,-0.0058277263306081295
3386722.855,634014494,219.2,103149361,0.03344182297587395,-0.16459982097148895,1510,1510,72.7874526977539,-0.00588984414935112
3386822.855,634014494,219.2,103149362,0.027684757485985756,-0.1708020567893982,1510,1510,72.7451400756836,-0.007399188354611397
3386922.855,634014494,219.2,103149362,0.025839371606707573,-0.17184844613075256,1510,1510,72.70689392089844,-0.007248308509588242
3387022.855,634014494,219.21,103149362,0.025849202647805214,-0.16836702823638916,1510,1510,72.680419921875,-0.006030019838362932
3387122.855,634014494,219.21,103149362,0.036275774240493774,-0.16769587993621826,1510,1510,72.65941619873047,-0.005017506889998913
3387222.855,634014494,219.21,103149363,0.039720505475997925,-0.16275955736637115,1510,1510,72.59207916259766,-0.005942684132605791
3387322.855,634014494,219.21,103149363,0.03618883341550827,-0.15990018844604492,1510,1510,72.51081085205078,-0.007399435620754957
3387422.855,634014494,219.21,103149363,0.0260258000344038,-0.1630849689245224,1510,1510,72.45630645751953,-0.008020119741559029
3387522.855,634014494,219.21,103149363,0.025521550327539444,-0.16386377811431885,1510,1510,72.416259765625,-0.006819912698119879
3387622.855,634014494,219.2,103149364,0.031566321849823,-0.17132465541362762,1510,1510,72.39293670654297,-0.0055305869318544865
3387722.855,634014494,219.2,103149364,0.04062989726662636,-0.1726587563753128,1510,1510,72.37344360351562,-0.005471479147672653
3387822.855,634014494,219.21,103149365,0.030436847358942032,-0.1644560992717743,1510,1510,72.33638763427734,-0.006697321310639381
3387922.855,634014494,219.21,103149365,0.027294255793094635,-0.16353575885295868,1510,1510,72.30626678466797,-0.007391301915049553
3388022.855,634014494,219.21,103149365,0.028152666985988617,-0.15846753120422363,1510,1510,72.27601623535156,-0.006903625093400478
3388122.855,634014494,219.21,103149365,0.02728341706097126,-0.16489261388778687,1510,1510,72.23887634277344,-0.006692224182188511
3388222.855,634014494,219.21,103149366,0.03848566114902496,-0.16345557570457458,1510,1510,72.20036315917969,-0.006998282391577959
3388322.855,634014494,219.21,103149366,0.028035281226038933,-0.1684878170490265,1510,1510,72.15167236328125,-0.007972106337547302
3388422.855,634014494,219.2,103149366,0.025610581040382385,-0.1681322157382965,1510,1510,72.12310791015625,-0.007210124284029007
3388522.855,634014494,219.2,103149366,0.029083911329507828,-0.16579660773277283,1510,1510,72.10850524902344,-0.005909000523388386
3388622.855,634014494,219.21,103149367,0.030817264690995216,-0.17185603082180023,1510,1510,72.0792007446289,-0.006193151231855154
3388722.855,634014494,219.21,103149367,0.03253151476383209,-0.16825298964977264,1510,1510,72.0461196899414,-0.00788310170173645
3388822.855,634014494,219.2,103149367,0.0228876993060112,-0.15887749195098877,1510,1510,72.01667022705078,-0.008820002898573875
3388922.855,634014494,219.2,103149367,0.025355732068419456,-0.16288328170776367,1510,1510,71.99479675292969,-0.007994772866368294
3389022.855,634014493,219.19,103149367,0.034302759915590286,-0.1663515865802765,1510,1510,71.98433685302734,-0.006401967257261276
3389122.855,634014493,219.19,103149367,0.03503061830997467,-0.16480214893817902,1510,1510,71.9744644165039,-0.00630531320348382
3389222.855,634014493,219.19,103149367,0.034896042197942734,-0.16469693183898926,1510,1510,71.93228149414062,-0.007125806994736195
3389322.855,634014493,219.19,103149367,0.029077529907226562,-0.1622244417667389,1510,1510,71.88504791259766,-0.008443796075880527
3389422.855,634014493,219.18,103149367,0.023634333163499832,-0.16156889498233795,1510,1510,71.84111022949219,-0.008190504275262356
3389522.855,634014493,219.18,103149367,0.0320395864546299,-0.16767531633377075,1510,1510,71.80155181884766,-0.007343301549553871
3389622.855,634014493,219.17,103149367,0.03284072130918503,-0.16788707673549652,1510,1510,71.76513671875,-0.007252588402479887
3389722.855,634014493,219.17,103149367,0.029389631003141403,-0.16890031099319458,1510,1510,71.71723937988281,-0.007599981501698494
3389822.855,634014492,219.16,103149366,0.03121563233435154,-0.16453050076961517,1510,1510,71.67064666748047,-0.007887357845902443
3389922.855,634014492,219.16,103149366,0.03145992010831833,-0.16616453230381012,1510,1510,71.62960815429688,-0.007473481819033623
3390022.855,634014492,219.15,103149366,0.03190231695771217,-0.16685780882835388,1510,1510,71.59732818603516,-0.007314351387321949
3390122.855,634014492,219.15,103149366,0.030724909156560898,-0.16476848721504211,1510,1510,71.55928802490234,-0.00824674591422081
3390222.855,634014492,219.13,103149365,0.023204723373055458,-0.16138245165348053,1510,1510,71.5169677734375,-0.008956026285886765
3390322.855,634014492,219.13,103149365,0.020706497132778168,-0.1650807410478592,1510,1510,71.47074127197266,-0.008715350180864334
3390422.855,634014492,219.12,103149364,0.02726965956389904,-0.16783463954925537,1510,1510,71.4264144897461,-0.0068756709806621075
3390522.855,634014492,219.12,103149364,0.03787734732031822,-0.17488788068294525,1510,1510,71.3818359375,-0.006443534977734089
3390622.855,634014492,219.11,103149364,0.04332997649908066,-0.1690250188112259,1510,1510,71.31259155273438,-0.008152632974088192
3390722.855,634014492,219.11,103149364,0.030156567692756653,-0.16092345118522644,1510,1510,71.23917388916016,-0.00929180532693863
3390822.855,634014492,219.11,103149363,0.023802658542990685,-0.15773914754390717,1510,1510,71.18480682373047,-0.008792529813945293
3390922.855,634014492,219.11,103149363,0.02879231423139572,-0.16607683897018433,1510,1510,71.1446304321289,-0.0073358830995857716
3391022.855,634014492,219.09,103149363,0.035420287400484085,-0.16606000065803528,1510,1510,71.11902618408203,-0.007388197351247072
3391122.855,634014492,219.09,103149363,0.03834404796361923,-0.16162854433059692,1510,1510,71.09129333496094,-0.008274272084236145
3391222.855,634014492,219.08,103149362,0.027347657829523087,-0.1665274202823639,1510,1510,71.03182220458984,-0.009150139056146145
3391322.855,634014492,219.08,103149362,0.01840365119278431,-0.15928438305854797,1510,1510,70.97334289550781,-0.008845141157507896
3391422.855,634014491,219.07,103149361,0.03248875215649605,-0.16278433799743652,1510,1510,70.92919158935547,-0.00789265614002943
3391522.855,634014491,219.07,103149361,0.03280923143029213,-0.1646791398525238,1510,1510,70.91024780273438,-0.008093209937214851
3391622.855,634014491,219.06,103149361,0.03521240875124931,-0.16446399688720703,1510,1510,70.89190673828125,-0.008874380961060524
3391722.855,634014491,219.06,103149361,0.0333949439227581,-0.16593463718891144,1510,1510,70.86027526855469,-0.00931878387928009
3391822.855,634014491,219.06,103149361,0.02953171730041504,-0.161782369017601,1510,1510,70.83062744140625,-0.008583752438426018
3391922.855,634014491,219.06,103149361,0.03721040487289429,-0.16508516669273376,1510,1510,70.79400634765625,-0.007839398458600044
3392022.855,634014491,219.04,103149360,0.02887168526649475,-0.1634318232536316,1510,1510,70.74329376220703,-0.00832124799489975
3392122.855,634014491,219.04,103149360,0.031160108745098114,-0.16366499662399292,1510,1510,70.6949234008789,-0.00928490236401558
3392222.855,634014491,219.03,103149359,0.02821282297372818,-0.15916702151298523,1510,1510,70.63864135742188,-0.009483522735536098
3392322.855,634014491,219.03,103149359,0.027687309309840202,-0.16741319000720978,1510,1510,70.59043884277344,-0.00870768167078495
3392422.855,634014491,219.02,103149359,0.03522137179970741,-0.1711358278989792,1510,1510,70.56011199951172,-0.007944291457533836
3392522.855,634014491,219.02,103149359,0.033688969910144806,-0.17158085107803345,1510,1510,70.48918151855469,-0.008575258776545525
3392622.855,634014491,219.01,103149358,0.029392261058092117,-0.16050297021865845,1510,1510,70.39435577392578,-0.009252400137484074
3392722.855,634014491,219.01,103149358,0.029224716126918793,-0.16637083888053894,1510,1510,70.32646942138672,-0.009076384827494621
3392822.855,634014490,219.01,103149358,0.036800283938646317,-0.16131362318992615,1510,1510,70.29035949707031,-0.008581697009503841
3392922.855,634014490,219.01,103149358,0.02891707234084606,-0.1620716154575348,1510,1510,70.26197814941406,-0.00878164917230606
3393022.855,634014491,219.02,103149359,0.031740348786115646,-0.1704428791999817,1510,1510,70.20226287841797,-0.009375104680657387
3393122.855,634014491,219.02,103149359,0.019420329481363297,-0.16284237802028656,1510,1510,70.14031219482422,-0.00948348455131054
3393222.855,634014491,219.01,103149359,0.025713777169585228,-0.1595577746629715,1510,1510,70.09010314941406,-0.009142277762293816
3393322.855,634014491,219.01,103149359,0.0282279085367918,-0.16841192543506622,1510,1510,70.03364562988281,-0.008678121492266655
3393422.855,634014492,219.01,103149358,0.0395272821187973,-0.17050422728061676,1510,1510,69.96936798095703,-0.00907957460731268
3393522.855,634014492,219.01,103149358,0.03148699179291725,-0.16440017521381378,1510,1510,69.91893768310547,-0.009905415587127209
3393622.855,634014492,219.01,103149358,0.025757694616913795,-0.16527268290519714,1510,1510,69.87023162841797,-0.010317981243133545
3393722.855,634014492,219.01,103149358,0.03182566910982132,-0.168107807636261,1510,1510,69.81682586669922,-0.009377211332321167
3393822.855,634014492,219.01,103149357,0.0371445007622242,-0.16931919753551483,1510,1510,69.77083587646484,-0.008921904489398003
3393922.855,634014492,219.01,103149357,0.03627043962478638,-0.16257421672344208,1510,1510,69.71540832519531,-0.009238962084054947
3394022.855,634014493,219.01,103149357,0.03027917630970478,-0.15691737830638885,1510,1510,69.64197540283203,-0.010205281898379326
3394122.855,634014493,219.01,103149357,0.02605993114411831,-0.15422779321670532,1510,1510,69.58075714111328,-0.010139328427612782
3394222.855,634014493,219.01,103149357,0.028400186449289322,-0.16279707849025726,1510,1510,69.53262329101562,-0.009360524825751781
3394322.855,634014493,219.01,103149357,0.02634366974234581,-0.16992299258708954,1510,1510,69.47687530517578,-0.009149791672825813
3394422.855,634014494,219.01,103149357,0.035008348524570465,-0.1683240383863449,1510,1510,69.41645050048828,-0.010000811889767647
3394522.855,634014494,219.01,103149357,0.026929017156362534,-0.16665540635585785,1510,1510,69.35061645507812,-0.010067186318337917
3394622.855,634014494,219.01,103149357,0.029234666377305984,-0.16222384572029114,1510,1510,69.30501556396484,-0.009920546784996986
3394722.855,634014494,219.01,103149357,0.030975963920354843,-0.16684766113758087,1510,1510,69.26408386230469,-0.009147957898676395
3394822.855,634014494,219.01,103149357,0.03295549377799034,-0.16746529936790466,1510,1510,69.20506286621094,-0.009035746566951275
3394922.855,634014494,219.01,103149357,0.03634585812687874,-0.16007140278816223,1510,1510,69.1439437866211,-0.010093331336975098
3395022.855,634014495,219.01,103149357,0.02943231351673603,-0.1637374758720398,1510,1510,69.07034301757812,-0.011007050983607769
3395122.855,634014495,219.01,103149357,0.02653978392481804,-0.16135957837104797,1510,1510,68.98837280273438,-0.010291986167430878
3395222.855,634014495,219,103149357,0.030306536704301834,-0.1635582596063614,1510,1510,68.9255142211914,-0.009234564378857613
3395322.855,634014495,219,103149357,0.03841886296868324,-0.16719549894332886,1510,1510,68.86144256591797,-0.009003673680126667
3395422.855,634014495,219.01,103149358,0.032582759857177734,-0.16658622026443481,1510,1510,68.80795288085938,-0.010124186985194683
3395522.855,634014495,219.01,103149358,0.03680769354104996,-0.16435028612613678,1510,1510,68.76427459716797,-0.010990181937813759
3395622.855,634014496,219,103149358,0.026682566851377487,-0.16148033738136292,1510,1510,68.70497131347656,-0.010558586567640305
3395722.855,634014496,219,103149358,0.032164666801691055,-0.16236916184425354,1510,1510,68.63685607910156,-0.00967913307249546
3395822.855,634014496,219,103149358,0.03585740178823471,-0.16809943318367004,1510,1510,68.5978775024414,-0.009362106211483479
3395922.855,634014496,219,103149358,0.025774165987968445,-0.16690415143966675,1510,1510,68.55853271484375,-0.01055840216577053
3396022.855,634014496,219,103149358,0.02262425236403942,-0.16638143360614777,1510,1510,68.48763275146484,-0.010493510402739048
3396122.855,634014496,219,103149358,0.028529183939099312,-0.16034339368343353,1510,1510,68.42476654052734,-0.010138513520359993
3396222.855,634014497,219,103149359,0.026996994391083717,-0.16189871728420258,1510,1510,68.38488006591797,-0.009825536049902439
3396322.855,634014497,219,103149359,0.025264941155910492,-0.1691199690103531,1510,1510,68.34542083740234,-0.010300195775926113
3396422.855,634014497,218.99,103149359,0.03474382311105728,-0.16435162723064423,1510,1510,68.29253387451172,-0.010643653571605682
3396522.855,634014497,218.99,103149359,0.03399917110800743,-0.16431403160095215,1510,1510,68.2518539428711,-0.010537036694586277
3396622.855,634014497,219,103149360,0.03315729275345802,-0.158498615026474,1510,1510,68.20133209228516,-0.009481191635131836
3396722.855,634014497,219,103149360,0.037109486758708954,-0.1622074991464615,1510,1510,68.1601791381836,-0.009965477511286736
3396822.855,634014498,219,103149359,0.0249294713139534,-0.16650927066802979,1510,1510,68.10127258300781,-0.010385343804955482
3396922.855,634014498,219,103149359,0.01768212392926216,-0.1666181981563568,1510,1510,68.02742767333984,-0.010953083634376526
3397022.855,634014498,219,103149360,0.02959907427430153,-0.1597849428653717,1510,1510,67.95621490478516,-0.010779095813632011
3397122.855,634014498,219,103149360,0.035228777676820755,-0.16193777322769165,1510,1510,67.91194152832031,-0.010150567628443241
3397222.855,634014498,218.99,103149360,0.02939792163670063,-0.17003580927848816,1510,1510,67.86893463134766,-0.010049677453935146
3397322.855,634014498,218.99,103149360,0.03427273780107498,-0.17326104640960693,1510,1510,67.8215103149414,-0.010683340951800346
3397422.855,634014499,219,103149361,0.025303421542048454,-0.16341474652290344,1510,1510,67.75944519042969,-0.010922597721219063
3397522.855,634014499,219,103149361,0.034842148423194885,-0.1647491753101349,1510,1510,67.71096801757812,-0.010501468554139137
3397622.855,634014499,218.99,103149361,0.034065403044223785,-0.16121907532215118,1510,1510,67.6671371459961,-0.010194560512900352
3397722.855,634014499,218.99,103149361,0.03641980141401291,-0.16617655754089355,1510,1510,67.61682891845703,-0.010471045970916748
3397822.855,634014499,218.99,103149361,0.03211658075451851,-0.1667526811361313,1510,1510,67.57027435302734,-0.010968845337629318
3397922.855,634014499,218.99,103149361,0.029088271781802177,-0.1649271547794342,1510,1510,67.51688385009766,-0.010813341476023197
3398022.855,634014499,218.99,103149362,0.02524430677294731,-0.16452524065971375,1510,1510,67.458251953125,-0.010406753048300743
3398122.855,634014499,218.99,103149362,0.03026551567018032,-0.16907574236392975,1510,1510,67.39248657226562,-0.010445634834468365
3398222.855,634014500,218.98,103149362,0.03419938683509827,-0.16342037916183472,1510,1510,67.31565856933594,-0.010461922734975815
3398322.855,634014500,218.98,103149362,0.03441513329744339,-0.1645435094833374,1510,1510,67.25482940673828,-0.01102804858237505
3398422.855,634014500,218.98,103149362,0.027776535600423813,-0.16564729809761047,1510,1510,67.21277618408203,-0.010984005406498909
3398522.855,634014500,218.98,103149362,0.03187016025185585,-0.16480021178722382,1510,1510,67.14756774902344,-0.010298133827745914
3398622.855,634014501,218.98,103149363,0.03229616582393646,-0.16348081827163696,1510,1510,67.07963562011719,-0.010076036676764488
3398722.855,634014501,218.98,103149363,0.028890542685985565,-0.17107738554477692,1510,1510,67.01628112792969,-0.010693765245378017
3398822.855,634014501,218.98,103149363,0.03094221092760563,-0.16395899653434753,1510,1510,66.93928527832031,-0.0111312847584486
3398922.855,634014501,218.98,103149363,0.025023188441991806,-0.1556595116853714,1510,1510,66.85546875,-0.011399940587580204
3399022.855,634014501,218.98,103149363,0.022974573075771332,-0.16241680085659027,1510,1510,66.79218292236328,-0.010700272396206856
3399122.855,634014501,218.98,103149363,0.03481779620051384,-0.17234252393245697,1510,1510,66.7373275756836,-0.010306124575436115
3399222.855,634014502,218.98,103149363,0.03044416382908821,-0.17065167427062988,1510,1510,66.67804718017578,-0.01098534744232893
3399322.855,634014502,218.98,103149363,0.03000304475426674,-0.16504952311515808,1510,1510,66.60803985595703,-0.011398009955883026
3399422.855,634014503,218.97,103149363,0.03223273158073425,-0.16133418679237366,1510,1510,66.5515365600586,-0.011036725714802742
3399522.855,634014503,218.97,103149363,0.03226866200566292,-0.1604689657688141,1510,1510,66.48957824707031,-0.010905623435974121
3399622.855,634014503,218.97,103149364,0.032756172120571136,-0.1595957726240158,1510,1510,66.4100112915039,-0.011203715577721596
3399722.855,634014503,218.97,103149364,0.02974962256848812,-0.16505169868469238,1510,1510,66.33096313476562,-0.011572381481528282
3399822.855,634014503,218.97,103149364,0.034624017775058746,-0.16306039690971375,1510,1510,66.28005981445312,-0.011366932652890682
3399922.855,634014503,218.97,103149364,0.028746778145432472,-0.16692471504211426,1510,1510,66.23422241210938,-0.01105958316475153
3400022.855,634014504,218.97,103149365,0.030666301026940346,-0.16438435018062592,1510,1510,66.17789459228516,-0.010907333344221115
3400122.855,634014504,218.97,103149365,0.02838204987347126,-0.16639195382595062,1510,1510,66.11112976074219,-0.011316637508571148
3400222.855,634014504,218.97,103149365,0.03285210579633713,-0.16507208347320557,1510,1510,66.0421371459961,-0.011754380539059639
3400322.855,634014504,218.97,103149365,0.03378574177622795,-0.16801370680332184,1510,1510,65.98226165771484,-0.011889045126736164
3400422.855,634014504,218.98,103149367,0.029748570173978806,-0.15821579098701477,1510,1510,65.90747833251953,-0.01115715317428112
3400522.855,634014504,218.98,103149367,0.032451048493385315,-0.17081058025360107,1510,1510,65.83255004882812,-0.010898659005761147
3400622.855,634014504,218.98,103149367,0.03583310544490814,-0.162321075797081,1510,1510,65.76986694335938,-0.01161937601864338
3400722.855,634014504,218.98,103149367,0.025338027626276016,-0.16705843806266785,1510,1510,65.7242431640625,-0.012149948626756668
3400822.855,634014504,218.98,103149368,0.027783432975411415,-0.16209229826927185,1510,1510,65.68899536132812,-0.012068220414221287
3400922.855,634014504,218.98,103149368,0.029835375025868416,-0.16443827748298645,1510,1510,65.62092590332031,-0.011608446016907692
3401022.855,634014505,218.98,103149369,0.04027288407087326,-0.16384673118591309,1510,1510,65.54857635498047,-0.011659050360321999
3401122.855,634014505,218.98,103149369,0.03570714592933655,-0.1641177237033844,1510,1510,65.49024963378906,-0.011981764808297157
3401222.855,634014505,218.98,103149370,0.0323806032538414,-0.1659981906414032,1510,1510,65.42549133300781,-0.012251511216163635
3401322.855,634014505,218.98,103149370,0.0311884805560112,-0.16541431844234467,1510,1510,65.34373474121094,-0.01172162126749754
3401422.855,634014505,218.99,103149372,0.03538094460964203,-0.16480714082717896,1510,1510,65.25730895996094,-0.0117998868227005
3401522.855,634014505,218.99,103149372,0.03848414123058319,-0.16173401474952698,1510,1510,65.18367767333984,-0.012114224955439568
3401622.855,634014506,218.99,103149372,0.02419295907020569,-0.1627906709909439,1510,1510,65.13907623291016,-0.012505900114774704
3401722.855,634014506,218.99,103149372,0.028252705931663513,-0.1650444120168686,1510,1510,65.09878540039062,-0.012504099868237972
3401822.855,634014506,218.99,103149374,0.028008325025439262,-0.16459965705871582,1510,1510,65.0541763305664,-0.012362631037831306
3401922.855,634014506,218.99,103149374,0.029391760006546974,-0.15898427367210388,1510,1510,64.98454284667969,-0.012166588567197323
3402022.855,634014506,219,103149375,0.03810744732618332,-0.16916528344154358,1510,1510,64.91047668457031,-0.012698567472398281
3402122.855,634014506,219,103149375,0.030476775020360947,-0.16999074816703796,1510,1510,64.85359191894531,-0.013210179284214973
3402222.855,634014507,219,103149376,0.02938934415578842,-0.16235890984535217,1510,1510,64.79286193847656,-0.013230123557150364
3402322.855,634014507,219,103149376,0.03371225297451019,-0.16787585616111755,1510,1510,64.73566436767578,-0.013392762281000614
3402422.855,634014507,219,103149377,0.03437911719083786,-0.16520719230175018,1510,1510,64.68964385986328,-0.013794374652206898
3402522.855,634014507,219,103149377,0.03701449930667877,-0.1638011634349823,1510,1510,64.62411499023438,-0.013963902369141579
3402622.855,634014508,219.01,103149378,0.030568016692996025,-0.16860158741474152,1510,1510,64.5570068359375,-0.014376992359757423
3402722.855,634014508,219.01,103149378,0.02764962613582611,-0.16735905408859253,1510,1510,64.4838638305664,-0.014384103007614613
3402822.855,634014508,219.02,103149379,0.028094004839658737,-0.15596574544906616,1510,1510,64.41216278076172,-0.014389309100806713
3402922.855,634014508,219.02,103149379,0.024920135736465454,-0.16850073635578156,1510,1510,64.33264923095703,-0.01441841572523117
3403022.855,634014508,219.02,103149381,0.03819359838962555,-0.16224561631679535,1510,1510,64.22269439697266,-0.015180513262748718
3403122.855,634014508,219.02,103149381,0.031053829938173294,-0.16611534357070923,1510,1510,64.11738586425781,-0.015577594749629498
3403222.855,634014509,219.03,103149382,0.03600115701556206,-0.16801396012306213,1510,1510,64.04426574707031,-0.015273063443601131
3403322.855,634014509,219.03,103149382,0.03337192162871361,-0.1646135300397873,1510,1510,63.97494888305664,-0.014837183989584446
3403422.855,634014509,219.04,103149384,0.024424215778708458,-0.16593903303146362,1510,1510,63.89453125,-0.015316048637032509
3403522.855,634014509,219.04,103149384,0.02352983132004738,-0.1651265174150467,1510,1510,63.81174850463867,-0.015966065227985382
3403622.855,634014510,219.05,103149385,0.02181652933359146,-0.16309671103954315,1510,1510,63.720252990722656,-0.016206609085202217
3403722.855,634014510,219.05,103149385,0.031058335676789284,-0.16559837758541107,1510,1510,63.627471923828125,-0.01616576500236988
3403822.855,634014510,219.05,103149387,0.03161895275115967,-0.15573333203792572,1510,1510,63.549407958984375,-0.01605851948261261
3403922.855,634014510,219.05,103149387,0.0322481244802475,-0.16842836141586304,1510,1510,63.463653564453125,-0.01615484245121479
3404022.855,634014510,219.07,103149389,0.027342820540070534,-0.16805993020534515,1510,1510,63.36085510253906,-0.01618095673620701
3404122.855,634014510,219.07,103149389,0.03007836453616619,-0.1692626178264618,1510,1510,63.27376937866211,-0.01626027561724186
3404222.855,634014510,219.08,103149391,0.03116493485867977,-0.16251400113105774,1510,1510,63.18764114379883,-0.016787175089120865
3404322.855,634014510,219.08,103149391,0.03318975493311882,-0.16437286138534546,1510,1510,63.08705139160156,-0.016971029341220856
3404422.855,634014511,219.09,103149393,0.027622314170002937,-0.16739459335803986,1510,1510,63.01491928100586,-0.016962630674242973
3404522.855,634014511,219.09,103149393,0.023106984794139862,-0.16728906333446503,1510,1510,62.94187545776367,-0.0171642005443573
3404622.855,634014511,219.1,103149395,0.025314539670944214,-0.16019807755947113,1510,1510,62.85676574707031,-0.01711421273648739
3404722.855,634014511,219.1,103149395,0.03258505463600159,-0.16522029042243958,1510,1510,62.7497444152832,-0.016802921891212463
3404822.855,634014511,219.11,103149397,0.03411770612001419,-0.16667070984840393,1510,1510,62.64447784423828,-0.016825398430228233
3404922.855,634014511,219.11,103149397,0.03371606022119522,-0.1696462780237198,1510,1510,62.548641204833984,-0.01741308718919754
3405022.855,634014511,219.13,103149399,0.030037593096494675,-0.17318572103977203,1510,1510,62.45166778564453,-0.017548155039548874
3405122.855,634014511,219.13,103149399,0.024664703756570816,-0.1637127548456192,1510,1510,62.36212921142578,-0.01742476411163807
3405222.855,634014511,219.13,103149400,0.033358681946992874,-0.16915984451770782,1510,1510,62.27681350708008,-0.017402129247784615
3405322.855,634014511,219.13,103149400,0.026425836607813835,-0.16047193109989166,1510,1510,62.1927490234375,-0.01733854040503502
3405422.855,634014511,219.15,103149403,0.030884690582752228,-0.15959888696670532,1510,1510,62.07658004760742,-0.017364593222737312
3405522.855,634014511,219.15,103149403,0.02866685390472412,-0.16835393011569977,1510,1510,61.951576232910156,-0.017453964799642563
3405622.855,634014511,219.16,103149405,0.03298215940594673,-0.1621825098991394,1510,1510,61.86450958251953,-0.017609350383281708
3405722.855,634014511,219.16,103149405,0.03565627336502075,-0.16373799741268158,1510,1510,61.785640716552734,-0.017290454357862473
3405822.855,634014511,219.17,103149407,0.02933473140001297,-0.15930522978305817,1510,1510,61.695526123046875,-0.017499586567282677
3405922.855,634014511,219.17,103149407,0.047520287334918976,-0.16411863267421722,1429,1587,61.589942932128906,-0.01734565570950508
3406022.855,634014512,219.19,103149410,0.46696600317955017,-0.1526072919368744,1408,1607,61.475955963134766,-0.020226305350661278
3406122.855,634014512,219.19,103149410,0.5976681709289551,-0.1553945392370224,1408,1607,61.37709426879883,-0.018947264179587364
3406222.855,634014513,219.21,103149418,1.0949454307556152,-0.1438927948474884,1404,1611,61.27507019042969,-0.016909688711166382
3406322.855,634014513,219.21,103149418,1.2416648864746094,-0.1766316443681717,1400,1615,61.1595458984375,-0.016591962426900864
3406422.855,634014516,219.22,103149433,1.49445641040802,-0.19408494234085083,1392,1623,61.0639762878418,-0.01513596810400486
3406522.855,634014516,219.22,103149433,1.5111578702926636,-0.13715088367462158,1388,1626,60.977684020996094,-0.010094442404806614
3406622.855,634014520,219.22,103149456,1.5095404386520386,-0.19790050387382507,1388,1626,60.90617370605469,-0.0101876650005579
3406722.855,634014520,219.22,103149456,1.4500538110733032,-0.19799396395683289,1379,1634,60.838314056396484,-0.01029934175312519
3406822.855,634014526,219.22,103149485,1.4528359174728394,-0.14621374011039734,1379,1634,60.7689323425293,-0.011440849862992764
3406922.855,634014526,219.22,103149485,1.335681676864624,-0.19553038477897644,1371,1642,60.68128967285156,-0.011936593800783157
3407022.855,634014533,219.22,103149521,1.3665493726730347,-0.19796210527420044,1367,1646,60.57109832763672,-0.012541361153125763
3407122.855,634014533,219.22,103149521,1.3517447710037231,-0.1906111240386963,1363,1650,60.43959045410156,-0.013434081338346004
3407222.855,634014543,219.23,103149563,1.3547790050506592,-0.20683825016021729,1363,1650,60.32425308227539,-0.015250451862812042
3407322.855,634014543,219.23,103149563,1.2529373168945312,-0.19956228137016296,1369,1656,60.23591232299805,-0.01527133584022522
3407422.855,634014553,219.23,103149609,1.1279910802841187,-0.07289687544107437,1396,1681,60.245330810546875,-0.009285854175686836
3407522.855,634014553,219.23,103149609,0.8255602717399597,-0.025677943602204323,1457,1739,60.508872985839844,0.024099962785840034
3407622.855,634014562,219.24,103149658,0.9261690378189087,0.05913939327001572,1457,1739,61.12253189086914,0.0829787403345108
3407722.855,634014562,219.24,103149658,0.9607522487640381,0.18864355981349945,1501,1781,61.93717575073242,0.13331389427185059
3407822.855,634014572,219.25,103149711,1.065205454826355,0.2158534824848175,1501,1781,62.86709213256836,0.16149699687957764
3407922.855,634014572,219.25,103149711,1.2043910026550293,0.19517210125923157,1508,1788,63.874935150146484,0.18432709574699402
3408022.855,634014581,219.25,103149769,1.2374070882797241,0.23849952220916748,1508,1788,64.89334869384766,0.19412729144096375
3408122.855,634014581,219.25,103149769,1.2538912296295166,0.15565133094787598,1508,1788,65.85713195800781,0.1868056058883667
3408222.855,634014589,219.27,103149830,1.227513074874878,0.10185371339321136,1508,1788,66.73818969726562,0.1709660142660141
3408322.855,634014589,219.27,103149830,1.1861376762390137,0.11830496042966843,1508,1788,67.51972198486328,0.152726411819458
3408422.855,634014598,219.27,103149894,1.1093800067901611,0.0492183081805706,1508,1788,68.3438949584961,0.1338934749364853
3408522.855,634014598,219.27,103149894,1.0649192333221436,-0.0290614552795887,1508,1788,68.94058990478516,0.12115336954593658
3408622.855,634014605,219.27,103149959,1.0242631435394287,-0.0006898330757394433,1509,1789,69.50953674316406,0.11146674305200577
3408722.855,634014605,219.27,103149959,1.0370959043502808,0.0005317387403920293,1540,1810,70.05984497070312,0.10668224096298218
3408822.855,634014613,219.28,103150025,1.102386474609375,0.022759119048714638,1566,1825,70.66118621826172,0.10485531389713287
3408922.855,634014613,219.28,103150025,1.2359592914581299,0.06265918910503387,1569,1827,71.36804962158203,0.11738336086273193
3409022.855,634014619,219.3,103150095,1.2562257051467896,0.09697212278842926,1571,1829,72.09648132324219,0.13374096155166626
3409122.855,634014619,219.3,103150095,1.3290337324142456,0.06262824684381485,1577,1833,72.87622833251953,0.1433916985988617
3409222.855,634014626,219.3,103150165,1.3341574668884277,0.13475973904132843,1577,1833,73.69076538085938,0.14711639285087585
3409322.855,634014626,219.3,103150165,1.286669135093689,0.12019509077072144,1577,1833,74.52323150634766,0.15005987882614136
3409422.855,634014631,219.3,103150237,1.2853443622589111,0.08617483079433441,1581,1835,75.34135437011719,0.14927718043327332
3409522.855,634014631,219.3,103150237,1.3795819282531738,0.1795634925365448,1635,1868,76.19866180419922,0.15078890323638916
3409622.855,634014635,219.31,103150310,1.3876514434814453,0.14923472702503204,1635,1868,77.1088638305664,0.16229428350925446
3409722.855,634014635,219.31,103150310,1.427271842956543,0.16423746943473816,1635,1868,78.0456314086914,0.173956036567688
3409822.855,634014639,219.32,103150385,1.464331865310669,0.18150180578231812,1635,1868,78.9891128540039,0.1791040301322937
3409922.855,634014639,219.32,103150385,1.459559440612793,0.1734585016965866,1635,1868,79.96167755126953,0.17835217714309692
3410022.855,634014641,219.32,103150461,1.3753516674041748,0.18973270058631897,1635,1868,80.94690704345703,0.17606864869594574
3410122.855,634014641,219.32,103150461,1.3736443519592285,0.13219131529331207,1635,1868,81.90080261230469,0.17402470111846924
3410222.855,634014641,219.33,103150539,1.358083724975586,0.12466515600681305,1635,1868,82.86003875732422,0.17284002900123596
3410322.855,634014641,219.33,103150539,1.3071613311767578,0.17310009896755219,1635,1868,83.83837127685547,0.17323334515094757
3410422.855,634014641,219.34,103150616,1.2705512046813965,0.18674488365650177,1635,1868,84.85867309570312,0.17739512026309967
3410522.855,634014641,219.34,103150616,1.3159105777740479,0.23393361270427704,1410,1695,85.87630462646484,0.18096080422401428
3410622.855,634014640,219.34,103150692,1.152557373046875,0.1869530975818634,1410,1695,86.78811645507812,0.1804017722606659
3410722.855,634014640,219.34,103150692,0.359337717294693,-0.12909400463104248,1343,1631,87.1452865600586,0.13286571204662323
3410822.855,634014638,219.33,103150765,-0.02496352791786194,-0.27200156450271606,1343,1631,87.16307830810547,0.04209786280989647
3410922.855,634014638,219.33,103150765,0.33078572154045105,-0.45941266417503357,1280,1571,86.80902099609375,-0.02046228013932705
3411022.855,634014638,219.36,103150831,0.6881956458091736,-0.6248162984848022,1278,1569,85.91516876220703,-0.10810549557209015
3411122.855,634014638,219.36,103150831,0.6245437860488892,-0.7175729870796204,1278,1569,84.78136444091797,-0.1849043369293213
3411222.855,634014640,219.38,103150899,0.8799409866333008,-0.7647998929023743,1282,1573,83.59658813476562,-0.20602145791053772
3411322.855,634014640,219.38,103150899,0.9583638906478882,-0.5979434251785278,1290,1580,82.47491455078125,-0.2031041532754898
3411422.855,634014643,219.38,103150965,0.972569465637207,-0.48618394136428833,1291,1581,81.51521301269531,-0.18626585602760315
3411522.855,634014643,219.38,103150965,0.8765745162963867,-0.4395188093185425,1291,1581,80.72238159179688,-0.1592363715171814
3411622.855,634014646,219.38,103151030,0.848890483379364,-0.31470051407814026,1291,1581,80.07410430908203,-0.13367623090744019
3411722.855,634014646,219.38,103151030,0.7327063679695129,-0.31723687052726746,1288,1586,79.48677825927734,-0.116335928440094
3411822.855,634014650,219.39,103151094,0.7828725576400757,-0.3579154312610626,1288,1586,78.94136810302734,-0.10437028855085373
3411922.855,634014650,219.39,103151094,0.8698964715003967,-0.33443039655685425,1276,1598,78.40603637695312,-0.0952596440911293
3412022.855,634014654,219.39,103151158,1.0310618877410889,-0.3381330370903015,1276,1598,77.87097930908203,-0.09359820187091827
3412122.855,634014654,219.39,103151158,1.1646488904953003,-0.3831166923046112,1263,1610,77.34642791748047,-0.09449243545532227
3412222.855,634014659,219.4,103151225,1.2900258302688599,-0.2985367178916931,1263,1610,76.81267547607422,-0.09525755047798157
3412322.855,634014659,219.4,103151225,1.336012601852417,-0.30934298038482666,1259,1614,76.25474548339844,-0.09543842077255249
3412422.855,634014665,219.4,103151293,1.313316822052002,-0.37287747859954834,1259,1614,75.6932144165039,-0.09602002799510956
3412522.855,634014665,219.4,103151293,1.3030306100845337,-0.3260032534599304,1259,1614,75.14395904541016,-0.09774012118577957
3412622.855,634014672,219.4,103151363,1.2255032062530518,-0.3331048786640167,1256,1611,74.5804672241211,-0.0983218401670456
3412722.855,634014672,219.4,103151363,1.238204002380371,-0.41278696060180664,1243,1606,73.96906280517578,-0.09837895631790161
3412822.855,634014679,219.41,103151433,1.2854838371276855,-0.388641357421875,1217,1582,73.32322692871094,-0.10482744127511978
3412922.855,634014679,219.41,103151433,1.3136396408081055,-0.43352311849594116,1180,1569,72.53179168701172,-0.11558166146278381
3413022.855,634014688,219.43,103151507,1.5795788764953613,-0.642067015171051,1177,1567,71.48931884765625,-0.14730918407440186
3413122.855,634014688,219.43,103151507,1.591384768486023,-0.645520031452179,1173,1571,70.2615966796875,-0.18596787750720978
3413222.855,634014698,219.43,103151582,1.575366497039795,-0.705531656742096,1173,1571,68.96769714355469,-0.2095043808221817
3413322.855,634014698,219.43,103151582,1.525635838508606,-0.7163766026496887,1169,1575,67.67369842529297,-0.21541084349155426
3413422.855,634014710,219.44,103151658,1.5183773040771484,-0.6564686298370361,1169,1575,66.40856170654297,-0.21340222656726837
3413522.855,634014710,219.44,103151658,1.4457619190216064,-0.5932649970054626,1161,1583,65.16026306152344,-0.20828628540039062
3413622.855,634014723,219.44,103151733,1.4188069105148315,-0.595755934715271,1161,1583,63.920928955078125,-0.20299369096755981
3413722.855,634014723,219.44,103151733,1.4577661752700806,-0.5913485884666443,1161,1583,62.70981979370117,-0.19913005828857422
3413822.855,634014739,219.44,103151810,1.4288591146469116,-0.6394689083099365,1161,1583,61.47902297973633,-0.1984165906906128
3413922.855,634014739,219.44,103151810,1.4294013977050781,-0.6355751752853394,1161,1583,60.224609375,-0.2031102180480957
3414022.855,634014755,219.45,103151886,1.3723760843276978,-0.6240190267562866,1161,1583,58.97227478027344,-0.20436714589595795
3414122.855,634014755,219.45,103151886,1.3889864683151245,-0.665385901927948,1161,1583,57.7182731628418,-0.20466136932373047
3414222.855,634014774,219.46,103151960,1.367272973060608,-0.70130455493927,1161,1583,56.49006271362305,-0.20839880406856537
3414322.855,634014774,219.46,103151960,1.3621575832366943,-0.629486620426178,1161,1583,55.258148193359375,-0.20777378976345062
3414422.855,634014794,219.46,103152033,1.3345348834991455,-0.6574549078941345,1161,1583,54.007896423339844,-0.2068813294172287
3414522.855,634014794,219.46,103152033,1.3319525718688965,-0.65435791015625,1161,1583,52.75840377807617,-0.209665909409523
3414622.855,634014815,219.46,103152105,1.308464527130127,-0.6802389025688171,1161,1583,51.47184753417969,-0.2126007378101349
3414722.855,634014815,219.46,103152105,1.2735307216644287,-0.6750942468643188,1163,1585,50.19838333129883,-0.21269570291042328
3414822.855,634014838,219.47,103152173,1.269989013671875,-0.617826521396637,1163,1585,48.922977447509766,-0.21224623918533325
3414922.855,634014838,219.47,103152173,1.265588402748108,-0.6544567346572876,1165,1587,47.67487716674805,-0.20979034900665283
3415022.855,634014862,219.47,103152240,1.2402137517929077,-0.6960021257400513,1165,1587,46.44340896606445,-0.2073594629764557
3415122.855,634014862,219.47,103152240,1.2484771013259888,-0.6976655721664429,1170,1591,45.21931457519531,-0.20510026812553406
3415222.855,634014887,219.47,103152305,1.2702316045761108,-0.6817560195922852,1174,1595,43.9818229675293,-0.20500968396663666
3415322.855,634014887,219.47,103152305,1.2421756982803345,-0.6468149423599243,1177,1597,42.78256607055664,-0.20162566006183624
