timestamp(ms),GPS.Lat,GPS.Alt,GPS.Lng,IMU.AccX,IMU.AccY,RCOU.C1,RCOU.C3,DCM.Yaw,IMU.GyrZ
4959442.825,634013044,217.52,103149673,0.028590712696313858,-0.16958767175674438,1510,1510,341.5556945800781,0.010158310644328594
4959542.825,634013044,217.52,103149673,0.03153463453054428,-0.17336958646774292,1510,1510,341.6294860839844,0.010014484636485577
4959642.825,634013043,217.53,103149672,0.03756757453083992,-0.1710071563720703,1510,1510,341.6702575683594,0.009452477097511292
4959742.825,634013043,217.53,103149672,0.03122379630804062,-0.15675285458564758,1510,1510,341.6933288574219,0.0082927867770195
4959842.825,634013043,217.52,103149672,0.03519054874777794,-0.1465647965669632,1510,1510,341.71954345703125,0.008079432882368565
4959942.825,634013043,217.52,103149672,0.027718326076865196,-0.15374594926834106,1510,1510,341.7656555175781,0.008711166679859161
4960042.825,634013043,217.52,103149672,0.031195010989904404,-0.15017902851104736,1510,1510,341.8265075683594,0.009294722229242325
4960142.825,634013043,217.52,103149672,0.0349779911339283,-0.15555235743522644,1510,1510,341.8811950683594,0.009691937826573849
4960242.825,634013043,217.51,103149671,0.028625622391700745,-0.16065706312656403,1510,1510,341.9303283691406,0.009541179984807968
4960342.825,634013043,217.51,103149671,0.03512575849890709,-0.1669297218322754,1510,1510,342.00103759765625,0.008477957919239998
4960442.825,634013043,217.51,103149671,0.03292575478553772,-0.16301099956035614,1510,1510,342.0796813964844,0.007643743418157101
4960542.825,634013043,217.51,103149671,0.03188087046146393,-0.1655467450618744,1510,1510,342.1446533203125,0.007499941624701023
4960642.825,634013043,217.5,103149672,0.025769630447030067,-0.17093683779239655,1510,1510,342.2023010253906,0.008088051341474056
4960742.825,634013043,217.5,103149672,0.030497686937451363,-0.16390350461006165,1510,1510,342.2682189941406,0.008644169196486473
4960842.825,634013043,217.5,103149671,0.035940978676080704,-0.15233387053012848,1510,1510,342.3382568359375,0.009048755280673504
4960942.825,634013043,217.5,103149671,0.03174285218119621,-0.15571996569633484,1510,1510,342.3931884765625,0.009019927121698856
4961042.825,634013042,217.5,103149671,0.03502562269568443,-0.14812308549880981,1510,1510,342.4459533691406,0.007554739713668823
4961142.825,634013042,217.5,103149671,0.022749757394194603,-0.15167170763015747,1510,1510,342.5245666503906,0.006910398602485657
4961242.825,634013042,217.5,103149671,0.01574917882680893,-0.15848448872566223,1510,1510,342.57855224609375,0.006589384283870459
4961342.825,634013042,217.5,103149671,0.026265500113368034,-0.1665404886007309,1510,1510,342.6064147949219,0.006870896089822054
4961442.825,634013042,217.49,103149671,0.03202614188194275,-0.16983875632286072,1510,1510,342.6471252441406,0.008164115250110626
4961542.825,634013042,217.49,103149671,0.04127805307507515,-0.16434866189956665,1510,1510,342.68804931640625,0.008612672798335552
4961642.825,634013042,217.49,103149670,0.039822131395339966,-0.16056491434574127,1510,1510,342.74176025390625,0.007925144396722317
4961742.825,634013042,217.49,103149670,0.03693684563040733,-0.15599161386489868,1510,1510,342.7855224609375,0.007450403645634651
4961842.825,634013042,217.5,103149670,0.027416426688432693,-0.14892461895942688,1510,1510,342.7901611328125,0.006272600963711739
4961942.825,634013042,217.5,103149670,0.022496696561574936,-0.1532978117465973,1510,1510,342.8033447265625,0.006186450831592083
4962042.825,634013042,217.49,103149670,0.01978374645113945,-0.15554413199424744,1510,1510,342.84112548828125,0.006625970359891653
4962142.825,634013042,217.49,103149670,0.026793155819177628,-0.17035627365112305,1510,1510,342.8848571777344,0.0073439208790659904
4962242.825,634013042,217.49,103149670,0.03582663834095001,-0.1654396653175354,1510,1510,342.95147705078125,0.0075269415974617004
4962342.825,634013042,217.49,103149670,0.045820802450180054,-0.16049082577228546,1510,1510,343.0012512207031,0.006974923890084028
4962442.825,634013042,217.5,103149670,0.03703590855002403,-0.1608559787273407,1510,1510,343.0393981933594,0.0063699716702103615
4962542.825,634013042,217.5,103149670,0.029700132086873055,-0.1561765968799591,1510,1510,343.0827331542969,0.005756051279604435
4962642.825,634013042,217.49,103149669,0.024324294179677963,-0.15220974385738373,1510,1510,343.1403503417969,0.005749721545726061
4962742.825,634013042,217.49,103149669,0.024592408910393715,-0.15186718106269836,1510,1510,343.2024230957031,0.006113378796726465
4962842.825,634013042,217.48,103149669,0.02895532175898552,-0.15618030726909637,1510,1510,343.24395751953125,0.006550301797688007
4962942.825,634013042,217.48,103149669,0.03489936515688896,-0.170490100979805,1510,1510,343.27471923828125,0.00672657135874033
4963042.825,634013041,217.5,103149669,-0.1732683777809143,-0.15291161835193634,1597,1419,343.30694580078125,0.00488172797486186
4963142.825,634013041,217.5,103149669,-0.2670305371284485,-0.15967074036598206,1672,1340,343.3218994140625,0.004237974062561989
4963242.825,634013039,217.48,103149670,-0.8229224681854248,-0.19274534285068512,1616,1399,343.26800537109375,0.0012510757660493255
4963342.825,634013039,217.48,103149670,-0.27255499362945557,-0.14653582870960236,1510,1510,343.2278747558594,-0.003840421326458454
4963442.825,634013037,217.48,103149671,-0.10873157531023026,-0.14020957052707672,1510,1510,343.23980712890625,-0.004196974914520979
4963542.825,634013037,217.48,103149671,0.042008355259895325,-0.19070982933044434,1510,1510,343.2574768066406,-0.0035271632950752974
4963642.825,634013034,217.48,103149672,0.1982729434967041,-0.13654135167598724,1510,1510,343.275390625,-0.00370230944827199
4963742.825,634013034,217.48,103149672,0.24937088787555695,-0.148868590593338,1510,1510,343.2937316894531,-0.00393720855936408
4963842.825,634013033,217.48,103149671,0.18786023557186127,-0.17456166446208954,1510,1510,343.2984924316406,-0.003951924853026867
4963942.825,634013033,217.48,103149671,0.07663594186306,-0.14786294102668762,1510,1510,343.2725830078125,-0.003552689915522933
4964042.825,634013031,217.48,103149672,-0.017672305926680565,-0.15630267560482025,1510,1510,343.230712890625,-0.0020963293500244617
4964142.825,634013031,217.48,103149672,-0.07315177470445633,-0.1795615255832672,1510,1510,343.20440673828125,-0.0010506361722946167
4964242.825,634013029,217.48,103149673,-0.039423566311597824,-0.15984243154525757,1510,1510,343.20477294921875,-0.000563772046007216
4964342.825,634013029,217.48,103149673,0.008162389509379864,-0.15838274359703064,1510,1510,343.247314453125,-0.0009166640229523182
4964442.825,634013027,217.48,103149673,0.06634551286697388,-0.17036554217338562,1510,1510,343.275146484375,-0.001089134719222784
4964542.825,634013027,217.48,103149673,0.1004377007484436,-0.14684255421161652,1510,1510,343.2845764160156,-0.001345218624919653
4964642.825,634013025,217.46,103149674,0.10142657160758972,-0.14944447576999664,1510,1510,343.294677734375,-0.00044202239951118827
4964742.825,634013025,217.46,103149674,0.06780385971069336,-0.16163237392902374,1510,1510,343.31939697265625,0.0011109815677627921
4964842.825,634013023,217.46,103149674,0.040828295052051544,-0.1599828153848648,1510,1510,343.3516845703125,0.0027463105507194996
4964942.825,634013023,217.46,103149674,0.02326763980090618,-0.15798364579677582,1510,1510,343.3549499511719,0.0031183967366814613
4965042.825,634013021,217.47,103149675,0.00988769344985485,-0.17018552124500275,1510,1510,343.357177734375,0.00190589833073318
4965142.825,634013021,217.47,103149675,0.012717032805085182,-0.157403364777565,1510,1510,343.3835754394531,0.0002890915784519166
4965242.825,634013020,217.46,103149675,0.023294668644666672,-0.15804746747016907,1510,1510,343.4150390625,0.0005271764239296317
4965342.825,634013020,217.46,103149675,0.034984756261110306,-0.1698770821094513,1510,1510,343.4483337402344,0.002212858758866787
4965442.825,634013018,217.46,103149675,0.05546780675649643,-0.16202110052108765,1510,1510,343.4808654785156,0.0034909090027213097
4965542.825,634013018,217.46,103149675,0.0656922310590744,-0.15906795859336853,1510,1510,343.50177001953125,0.003082533832639456
4965642.825,634013016,217.45,103149676,0.05628890544176102,-0.15520459413528442,1510,1510,343.5209655761719,0.0028483704663813114
4965742.825,634013016,217.45,103149676,0.05315821245312691,-0.15646369755268097,1510,1510,343.5498962402344,0.0029047243297100067
4965842.825,634013014,217.45,103149677,0.030107278376817703,-0.15795578062534332,1510,1510,343.5792236328125,0.002127715852111578
4965942.825,634013014,217.45,103149677,0.004222053103148937,-0.15583722293376923,1510,1510,343.6077575683594,0.0025242753326892853
4966042.825,634013012,217.44,103149677,0.013994176872074604,-0.1516430675983429,1510,1510,343.6353759765625,0.0034031453542411327
4966142.825,634013012,217.44,103149677,0.03273390233516693,-0.17079709470272064,1622,1392,343.6552734375,0.004317503422498703
4966242.825,634013011,217.45,103149678,-0.09826911240816116,-0.17824769020080566,1747,1261,343.63787841796875,0.0021356705110520124
4966342.825,634013011,217.45,103149678,-0.32496213912963867,-0.1680516004562378,1747,1261,343.62353515625,-0.004807182587683201
4966442.825,634013007,217.44,103149678,-0.5879251956939697,-0.2381056547164917,1871,1130,343.50677490234375,-0.006457705516368151
4966542.825,634013007,217.44,103149678,-2.052565574645996,-0.20203350484371185,1900,1100,343.1329650878906,-0.031047873198986053
4966642.825,634012995,217.44,103149683,-3.5254955291748047,-0.07483445852994919,1900,1100,342.72882080078125,-0.06531447917222977
4966742.825,634012995,217.44,103149683,-3.656625509262085,-0.08520829677581787,1871,1130,342.4020080566406,-0.052937157452106476
4966842.825,634012974,217.44,103149692,-3.3828067779541016,-0.10958626866340637,1747,1261,342.1370544433594,-0.04046422988176346
4966942.825,634012974,217.44,103149692,-2.0405664443969727,0.027617735788226128,1622,1392,342.00360107421875,-0.030440591275691986
4967042.825,634012951,217.43,103149704,-0.5521275997161865,-0.14094741642475128,1502,1517,342.0487365722656,-0.005778433755040169
4967142.825,634012951,217.43,103149704,0.6668041944503784,-0.21882928907871246,1420,1595,342.194091796875,0.01216008048504591
4967242.825,634012932,217.42,103149712,1.0709532499313354,-0.14513836801052094,1338,1673,342.39971923828125,0.018244799226522446
4967342.825,634012932,217.42,103149712,1.2356715202331543,-0.16151055693626404,1338,1673,342.5938415527344,0.02724490687251091
4967442.825,634012916,217.43,103149719,1.0522630214691162,-0.2449628859758377,1256,1751,342.7638244628906,0.03193178027868271
4967542.825,634012916,217.43,103149719,0.7705770134925842,-0.1763402372598648,1174,1829,342.9104919433594,0.029877785593271255
4967642.825,634012902,217.44,103149725,0.8846461772918701,-0.18434986472129822,1100,1900,342.9638366699219,0.025900745764374733
4967742.825,634012902,217.44,103149725,0.8311945796012878,-0.1810392439365387,1100,1900,343.02423095703125,0.00009564564970787615
4967842.825,634012891,217.44,103149730,0.9683762192726135,-0.11954332888126373,1100,1900,343.1475524902344,0.00964595377445221
4967942.825,634012891,217.44,103149730,1.6998432874679565,-0.1464402973651886,1100,1900,343.04730224609375,0.007546544075012207
4968042.825,634012891,217.49,103149729,5.039218902587891,-0.4109342098236084,1100,1900,342.39593505859375,-0.05591292679309845
4968142.825,634012891,217.49,103149729,6.6146721839904785,0.051645711064338684,1100,1900,341.8509826660156,-0.13415193557739258
4968242.825,634012907,217.58,103149723,6.584390640258789,-0.06261777877807617,1100,1900,341.4909362792969,-0.09481249004602432
4968342.825,634012907,217.58,103149723,6.481093406677246,-0.21752837300300598,1100,1900,341.2158508300781,-0.060515549033880234
4968442.825,634012935,217.56,103149704,5.730759143829346,-0.23230944573879242,1100,1900,340.9836730957031,-0.042662397027015686
4968542.825,634012935,217.56,103149704,4.945898056030273,-0.23805835843086243,1100,1900,340.7754821777344,-0.028346221894025803
4968642.825,634012971,217.48,103149683,4.175995826721191,-0.23858994245529175,1100,1900,340.5903015136719,-0.016427796334028244
4968742.825,634012971,217.48,103149683,3.5086190700531006,-0.09285717457532883,1100,1900,340.406494140625,-0.014862790703773499
4968842.825,634013012,217.47,103149663,3.5147485733032227,-0.40040650963783264,1100,1900,340.1393127441406,-0.01963723450899124
4968942.825,634013012,217.47,103149663,3.5161244869232178,-0.3228381872177124,1100,1900,339.81842041015625,-0.041696880012750626
4969042.825,634013058,217.5,103149636,3.5239391326904297,-0.30383041501045227,1100,1900,339.5414733886719,-0.04496665671467781
4969142.825,634013058,217.5,103149636,3.1525375843048096,-0.48410266637802124,1100,1900,339.2500915527344,-0.03646930307149887
4969242.825,634013107,217.49,103149607,2.855355978012085,-0.36833181977272034,1100,1900,338.94158935546875,-0.03400523588061333
4969342.825,634013107,217.49,103149607,2.4907796382904053,-0.42239952087402344,1100,1900,338.5889587402344,-0.04377105087041855
4969442.825,634013158,217.48,103149578,2.335310459136963,-0.44849932193756104,1100,1900,338.2062072753906,-0.052837565541267395
4969542.825,634013158,217.48,103149578,2.267519950866699,-0.39243802428245544,1100,1900,337.8326416015625,-0.05591447278857231
4969642.825,634013209,217.46,103149545,2.303081512451172,-0.3365568518638611,1100,1900,337.44854736328125,-0.05383545532822609
4969742.825,634013209,217.46,103149545,2.467830181121826,-0.45043447613716125,1100,1900,337.07183837890625,-0.05124258995056152
4969842.825,634013260,217.46,103149511,2.548311471939087,-0.558996319770813,1100,1900,336.651611328125,-0.05117140710353851
4969942.825,634013260,217.46,103149511,2.4603896141052246,-0.5385016798973083,1100,1900,336.15240478515625,-0.056376729160547256
4970042.825,634013312,217.44,103149474,2.3773488998413086,-0.523382842540741,1100,1900,335.62542724609375,-0.06322279572486877
4970142.825,634013312,217.44,103149474,2.192798137664795,-0.5852397680282593,1100,1900,335.1343688964844,-0.0691499337553978
4970242.825,634013364,217.44,103149436,2.1142208576202393,-0.5074672698974609,1100,1900,334.6705627441406,-0.063709557056427
4970342.825,634013364,217.44,103149436,2.165699005126953,-0.39025744795799255,1100,1900,334.2298278808594,-0.05993068590760231
4970442.825,634013415,217.45,103149396,2.1547141075134277,-0.42193543910980225,1100,1900,333.8216552734375,-0.05660378187894821
4970542.825,634013415,217.45,103149396,2.274571657180786,-0.4066329896450043,1100,1900,333.4208679199219,-0.05316951870918274
4970642.825,634013415,217.45,103149396,2.2427186965942383,-0.47680720686912537,1100,1900,333.0102233886719,-0.05358259379863739
4970742.825,634013467,217.45,103149356,2.2489097118377686,-0.4085274040699005,1100,1900,332.6319885253906,-0.05237414315342903
4970842.825,634013519,217.44,103149313,2.1753153800964355,-0.5233654975891113,1100,1900,332.2658386230469,-0.052042026072740555
4970942.825,634013519,217.44,103149313,2.1529183387756348,-0.4641410708427429,1100,1900,331.9198303222656,-0.05158074200153351
4971042.825,634013569,217.43,103149270,2.12554931640625,-0.4912269413471222,1100,1900,331.5656433105469,-0.05388834327459335
4971142.825,634013569,217.43,103149270,2.1436853408813477,-0.35328251123428345,1100,1900,331.2275085449219,-0.05544063076376915
4971242.825,634013621,217.43,103149226,2.1976845264434814,-0.46659743785858154,1100,1900,330.89306640625,-0.050712279975414276
4971342.825,634013621,217.43,103149226,2.1200833320617676,-0.47015613317489624,1100,1900,330.5384826660156,-0.05263318866491318
4971442.825,634013671,217.43,103149180,2.139415740966797,-0.4087579846382141,1100,1900,330.1929931640625,-0.053670305758714676
4971542.825,634013671,217.43,103149180,2.1600916385650635,-0.46827906370162964,1100,1900,329.8637390136719,-0.05325969681143761
4971642.825,634013722,217.42,103149133,2.110764741897583,-0.5110659003257751,1100,1900,329.4826354980469,-0.05166933313012123
4971742.825,634013722,217.42,103149133,2.189133882522583,-0.48910093307495117,1100,1900,329.0989990234375,-0.05789528414607048
4971842.825,634013772,217.42,103149085,2.0458016395568848,-0.39721426367759705,1100,1900,328.7383728027344,-0.050529297441244125
4971942.825,634013772,217.42,103149085,2.2386176586151123,-0.46348491311073303,1100,1900,328.3720703125,-0.04856136441230774
4972042.825,634013822,217.4,103149037,2.140282392501831,-0.4710753262042999,1100,1900,328.0436706542969,-0.05034592002630234
4972142.825,634013822,217.4,103149037,2.1109092235565186,-0.3951572775840759,1100,1900,327.745361328125,-0.04932720586657524
4972242.825,634013872,217.39,103148987,2.149542808532715,-0.41486498713493347,1100,1900,327.4212951660156,-0.04486106336116791
4972342.825,634013872,217.39,103148987,2.141547203063965,-0.37170499563217163,1100,1900,327.0751953125,-0.04299132898449898
4972442.825,634013922,217.4,103148936,2.1536526679992676,-0.47723597288131714,1100,1900,326.7556457519531,-0.04463774710893631
4972542.825,634013922,217.4,103148936,2.202744245529175,-0.4678248465061188,1100,1900,326.4289245605469,-0.046305958181619644
4972642.825,634013971,217.38,103148884,2.072814702987671,-0.39885827898979187,1100,1900,326.1076354980469,-0.048396751284599304
4972742.825,634013971,217.38,103148884,2.1598453521728516,-0.4262760877609253,1100,1900,325.7934875488281,-0.0454234778881073
4972842.825,634014020,217.37,103148831,2.1116185188293457,-0.4376581311225891,1100,1900,325.48370361328125,-0.04470007121562958
4972942.825,634014020,217.37,103148831,2.1969377994537354,-0.4868738651275635,1100,1900,325.1753234863281,-0.04495377838611603
4973042.825,634014069,217.36,103148778,2.1282825469970703,-0.39426884055137634,1100,1900,324.84130859375,-0.04668613150715828
4973142.825,634014069,217.36,103148778,2.1066653728485107,-0.5120278000831604,1100,1900,324.494873046875,-0.049390923231840134
4973242.825,634014117,217.35,103148722,2.1285572052001953,-0.5032879710197449,1100,1900,324.1391906738281,-0.052799761295318604
4973342.825,634014117,217.35,103148722,2.1242921352386475,-0.5143573880195618,1100,1900,323.76165771484375,-0.055827364325523376
4973442.825,634014165,217.35,103148666,2.074047088623047,-0.4954071044921875,1100,1900,323.4192810058594,-0.05539056658744812
4973542.825,634014165,217.35,103148666,2.230884075164795,-0.4667132496833801,1100,1900,323.0975646972656,-0.051932550966739655
4973642.825,634014213,217.34,103148609,2.1408724784851074,-0.4970279335975647,1133,1868,322.73309326171875,-0.05292955040931702
4973742.825,634014213,217.34,103148609,1.2204558849334717,-0.4482448697090149,1215,1790,322.3633728027344,-0.05654169246554375
4973842.825,634014257,217.31,103148554,0.4055846333503723,-0.40498363971710205,1297,1712,322.05706787109375,-0.04925459250807762
4973942.825,634014257,217.31,103148554,-0.4585476815700531,-0.35134854912757874,1379,1634,321.78387451171875,-0.039703283458948135
4974042.825,634014294,217.29,103148506,-1.3961963653564453,-0.26430678367614746,1461,1556,321.57562255859375,-0.03256845846772194
4974142.825,634014294,217.29,103148506,-1.681917667388916,-0.20062854886054993,1510,1510,321.44189453125,-0.019109781831502914
4974242.825,634014327,217.28,103148468,-1.8539856672286987,-0.1557721197605133,1510,1510,321.3286437988281,-0.012476276606321335
4974342.825,634014327,217.28,103148468,-1.696576714515686,-0.12824492156505585,1510,1510,321.19818115234375,-0.01863122545182705
4974442.825,634014350,217.3,103148435,-1.3677600622177124,-0.11803828179836273,1510,1510,321.09271240234375,-0.027398234233260155
4974542.825,634014350,217.3,103148435,-0.9981513023376465,-0.2783789038658142,1510,1510,321.0533447265625,-0.029280876740813255
4974642.825,634014373,217.28,103148406,-0.5758223533630371,-0.381632536649704,1510,1510,321.03607177734375,-0.02721041440963745
4974742.825,634014373,217.28,103148406,-0.31642431020736694,-0.21892359852790833,1510,1510,321.0188903808594,-0.02133302390575409
4974842.825,634014391,217.26,103148381,-0.30073317885398865,-0.14466775953769684,1510,1510,320.9798583984375,-0.01496717520058155
4974942.825,634014391,217.26,103148381,-0.32763808965682983,-0.2033587247133255,1510,1510,320.9252014160156,-0.009501868858933449
4975042.825,634014407,217.25,103148360,-0.5775910019874573,-0.10850252211093903,1510,1510,320.85845947265625,-0.007443465758115053
4975142.825,634014407,217.25,103148360,-0.6738071441650391,-0.19002501666545868,1510,1510,320.8035888671875,-0.007957716472446918
4975242.825,634014422,217.24,103148341,-0.5983949899673462,-0.23128995299339294,1510,1510,320.7908935546875,-0.007871867157518864
4975342.825,634014422,217.24,103148341,-0.3722492754459381,-0.20567715167999268,1510,1510,320.7860107421875,-0.009089191444218159
4975442.825,634014435,217.23,103148323,-0.35966822504997253,-0.1623404622077942,1510,1510,320.7403259277344,-0.01174924336373806
4975542.825,634014435,217.23,103148323,-0.14723291993141174,-0.18654638528823853,1510,1510,320.7161865234375,-0.01317199133336544
4975642.825,634014448,217.24,103148306,-0.2757219672203064,-0.17243847250938416,1510,1510,320.7004699707031,-0.011524469591677189
4975742.825,634014448,217.24,103148306,-0.2323128879070282,-0.20932668447494507,1510,1510,320.6727294921875,-0.011720378883183002
4975842.825,634014461,217.24,103148289,-0.36232101917266846,-0.1983461230993271,1510,1510,320.65966796875,-0.012033357284963131
4975942.825,634014461,217.24,103148289,-0.33612149953842163,-0.17999880015850067,1510,1510,320.6304626464844,-0.012040896341204643
4976042.825,634014474,217.25,103148272,-0.38282522559165955,-0.2022019326686859,1510,1510,320.5941467285156,-0.011892776936292648
4976142.825,634014474,217.25,103148272,-0.32784777879714966,-0.1852506548166275,1510,1510,320.580810546875,-0.011402614414691925
4976242.825,634014486,217.25,103148254,-0.31549277901649475,-0.1640516221523285,1510,1510,320.5935363769531,-0.009845037944614887
4976342.825,634014486,217.25,103148254,-0.2704492509365082,-0.18834033608436584,1510,1510,320.620849609375,-0.008879941888153553
4976442.825,634014498,217.25,103148238,-0.2474726438522339,-0.18055441975593567,1510,1510,320.64471435546875,-0.00898473896086216
4976542.825,634014498,217.25,103148238,-0.22490692138671875,-0.16674064099788666,1510,1510,320.63934326171875,-0.009430615231394768
4976642.825,634014510,217.25,103148222,-0.2262091338634491,-0.15467146039009094,1510,1510,320.6215515136719,-0.00993773341178894
4976742.825,634014510,217.25,103148222,-0.23084232211112976,-0.16297133266925812,1510,1510,320.60150146484375,-0.010074041783809662
4976842.825,634014520,217.24,103148208,-0.19053158164024353,-0.15414465963840485,1510,1510,320.5877685546875,-0.010006360709667206
4976942.825,634014520,217.24,103148208,-0.16575202345848083,-0.16899502277374268,1510,1510,320.5914306640625,-0.01025201566517353
4977042.825,634014530,217.23,103148195,-0.1084020808339119,-0.17296643555164337,1510,1510,320.6181945800781,-0.008878479711711407
4977142.825,634014530,217.23,103148195,-0.07049103826284409,-0.1585978865623474,1510,1510,320.6216735839844,-0.005827088374644518
4977242.825,634014538,217.22,103148184,-0.035394877195358276,-0.17380686104297638,1510,1510,320.62408447265625,-0.00302266632206738
4977342.825,634014538,217.22,103148184,-0.07534409314393997,-0.1693362593650818,1510,1510,320.626220703125,-0.00135990499984473
4977442.825,634014546,217.22,103148172,-0.06436389684677124,-0.16716325283050537,1510,1510,320.63616943359375,-0.00036761598312295973
4977542.825,634014546,217.22,103148172,-0.075040303170681,-0.17267119884490967,1510,1510,320.65386962890625,0.000798538327217102
4977642.825,634014554,217.22,103148161,-0.08073475956916809,-0.1764870285987854,1510,1510,320.652587890625,0.0000032957470921246568
4977742.825,634014554,217.22,103148161,-0.09782840311527252,-0.1734084039926529,1510,1510,320.6646423339844,-0.0005604602629318833
4977842.825,634014562,217.22,103148150,-0.09478067606687546,-0.1742892563343048,1510,1510,320.673583984375,-0.0023707428481429815
4977942.825,634014562,217.22,103148150,-0.11234503239393234,-0.1820376068353653,1510,1510,320.661865234375,-0.004419794771820307
4978042.825,634014570,217.23,103148139,-0.11611469089984894,-0.1737890988588333,1510,1510,320.6505432128906,-0.005710807628929615
4978142.825,634014570,217.23,103148139,-0.14349064230918884,-0.16794341802597046,1510,1510,320.6417236328125,-0.006861750036478043
4978242.825,634014577,217.24,103148128,-0.13365568220615387,-0.16132621467113495,1510,1510,320.6439514160156,-0.0073248110711574554
4978342.825,634014577,217.24,103148128,-0.11912842839956284,-0.1576915681362152,1510,1510,320.64459228515625,-0.0073359934613108635
4978442.825,634014585,217.23,103148118,-0.08772644400596619,-0.16577938199043274,1510,1510,320.6358642578125,-0.0067442418076097965
4978542.825,634014585,217.23,103148118,-0.05270371586084366,-0.16548538208007812,1510,1510,320.6400451660156,-0.004554662387818098
4978642.825,634014592,217.23,103148107,-0.014249584637582302,-0.17549502849578857,1510,1510,320.6684265136719,-0.0031205725390464067
4978742.825,634014592,217.23,103148107,0.0070593710988759995,-0.16584616899490356,1510,1510,320.6820068359375,-0.002097905147820711
4978842.825,634014600,217.22,103148098,0.016202479600906372,-0.1721435934305191,1510,1510,320.67010498046875,-0.0020645910408347845
4978942.825,634014600,217.22,103148098,-0.0006263789837248623,-0.16604173183441162,1510,1510,320.6595153808594,-0.0014046558644622564
4979042.825,634014606,217.22,103148088,-0.026182834059000015,-0.16199657320976257,1510,1510,320.66180419921875,-0.0007526474073529243
4979142.825,634014606,217.22,103148088,-0.055866703391075134,-0.17276397347450256,1510,1510,320.6681823730469,-0.00107146380469203
4979242.825,634014612,217.22,103148080,-0.07079164683818817,-0.16985970735549927,1510,1510,320.6903076171875,-0.0024417482782155275
4979342.825,634014612,217.22,103148080,-0.08486181497573853,-0.16785156726837158,1510,1510,320.68780517578125,-0.0036066053435206413
4979442.825,634014618,217.21,103148071,-0.0917268618941307,-0.16882339119911194,1510,1510,320.6700744628906,-0.004355994518846273
4979542.825,634014618,217.21,103148071,-0.07469767332077026,-0.16549882292747498,1510,1510,320.6336669921875,-0.004731910303235054
4979642.825,634014625,217.21,103148063,-0.04557960480451584,-0.16476686298847198,1510,1510,320.65057373046875,-0.003827915759757161
4979742.825,634014625,217.21,103148063,-0.02721490152180195,-0.1611674427986145,1510,1510,320.690673828125,-0.003091917373239994
4979842.825,634014631,217.21,103148054,0.0016881186747923493,-0.16696283221244812,1510,1510,320.7212829589844,-0.0021902620792388916
4979942.825,634014631,217.21,103148054,0.015660325065255165,-0.16547894477844238,1510,1510,320.73834228515625,-0.0013122458476573229
4980042.825,634014636,217.21,103148046,0.01446816511452198,-0.17155079543590546,1510,1510,320.7418212890625,-0.0011292577255517244
4980142.825,634014636,217.21,103148046,0.006018119398504496,-0.17429210245609283,1510,1510,320.7577819824219,-0.0010363192996010184
4980242.825,634014642,217.2,103148039,-0.008919434621930122,-0.17291507124900818,1510,1510,320.7771911621094,-0.0011567198671400547
4980342.825,634014642,217.2,103148039,-0.018459763377904892,-0.17137476801872253,1510,1510,320.7963562011719,-0.001788365887477994
4980442.825,634014642,217.2,103148039,-0.03643883392214775,-0.16460560262203217,1510,1510,320.7809143066406,-0.0026612081564962864
4980542.825,634014647,217.2,103148031,-0.041463956236839294,-0.17132510244846344,1510,1510,320.79168701171875,-0.00304036820307374
4980642.825,634014653,217.2,103148023,-0.04493412375450134,-0.1573440134525299,1510,1510,320.7716369628906,-0.003238889155909419
4980742.825,634014653,217.2,103148023,-0.039251651614904404,-0.16377869248390198,1510,1510,320.7762451171875,-0.0028717927634716034
4980842.825,634014658,217.2,103148016,-0.03151874989271164,-0.15846037864685059,1510,1510,320.7800598144531,-0.002927538473159075
4980942.825,634014658,217.2,103148016,-0.02365034818649292,-0.17102976143360138,1510,1510,320.8144836425781,-0.0036866648588329554
4981042.825,634014663,217.2,103148009,-0.01967581734061241,-0.16185465455055237,1510,1510,320.851806640625,-0.0038640936836600304
4981142.825,634014663,217.2,103148009,-0.0024088278878480196,-0.17373986542224884,1510,1510,320.8840026855469,-0.0030404762364923954
4981242.825,634014668,217.19,103148001,0.01073342002928257,-0.171327143907547,1510,1510,320.92974853515625,-0.0021204124204814434
4981342.825,634014668,217.19,103148001,0.017709631472826004,-0.17022833228111267,1510,1510,320.9425354003906,-0.0013482463546097279
4981442.825,634014673,217.18,103147994,0.005870414432138205,-0.17086221277713776,1510,1510,320.9619140625,-0.0011392011074349284
4981542.825,634014673,217.18,103147994,-0.004751507192850113,-0.16848772764205933,1510,1510,320.9686584472656,-0.0015501119196414948
4981642.825,634014678,217.17,103147987,-0.008925996720790863,-0.1667037159204483,1510,1510,320.9721374511719,-0.0016611762112006545
4981742.825,634014678,217.17,103147987,-0.013670219108462334,-0.1720617711544037,1510,1510,320.9500732421875,-0.0020575979724526405
4981842.825,634014682,217.17,103147981,-0.017306508496403694,-0.1669727861881256,1510,1510,320.95916748046875,-0.0026902242098003626
4981942.825,634014682,217.17,103147981,-0.012241735123097897,-0.17010459303855896,1510,1510,321.01123046875,-0.0022491817362606525
4982042.825,634014686,217.21,103147976,-0.0020268806256353855,-0.1676378697156906,1510,1510,321.03643798828125,-0.0017721853218972683
4982142.825,634014686,217.21,103147976,0.00311569613404572,-0.16838926076889038,1510,1510,321.05859375,-0.0012684713583439589
4982242.825,634014691,217.2,103147969,0.01730525866150856,-0.1674933284521103,1510,1510,321.1187438964844,-0.001608608989045024
4982342.825,634014691,217.2,103147969,0.007743393070995808,-0.16704161465168,1510,1510,321.1453857421875,-0.0017691787797957659
4982442.825,634014695,217.2,103147963,-0.0026103099808096886,-0.17574480175971985,1510,1510,321.15948486328125,-0.002370188944041729
4982542.825,634014695,217.2,103147963,-0.007530956529080868,-0.17295488715171814,1510,1510,321.1500549316406,-0.0031560740899294615
4982642.825,634014700,217.19,103147957,-0.026438666507601738,-0.1708941012620926,1510,1510,321.1682434082031,-0.0034908042289316654
4982742.825,634014700,217.19,103147957,-0.033791832625865936,-0.16590827703475952,1510,1510,321.178955078125,-0.003333535511046648
4982842.825,634014704,217.2,103147950,-0.01988619565963745,-0.15633100271224976,1510,1510,321.2052001953125,-0.0027258051559329033
4982942.825,634014704,217.2,103147950,0.0029847044497728348,-0.1602177768945694,1510,1510,321.2086486816406,-0.002526558469980955
4983042.825,634014708,217.2,103147945,0.009753427468240261,-0.16573862731456757,1510,1510,321.2256774902344,-0.0023391202557832003
4983142.825,634014708,217.2,103147945,0.028310395777225494,-0.1621597707271576,1510,1510,321.2242126464844,-0.0021978914737701416
4983242.825,634014712,217.19,103147939,0.02776416763663292,-0.1683264672756195,1510,1510,321.24884033203125,-0.002344610169529915
4983342.825,634014712,217.19,103147939,0.01615877076983452,-0.17135798931121826,1510,1510,321.2599182128906,-0.0022458001039922237
4983442.825,634014717,217.19,103147933,-0.005400540307164192,-0.16804158687591553,1510,1510,321.2546081542969,-0.0018168124370276928
4983542.825,634014717,217.19,103147933,-0.019698694348335266,-0.16465279459953308,1510,1510,321.2793273925781,-0.0014645798364654183
4983642.825,634014720,217.19,103147927,-0.020174654200673103,-0.16228440403938293,1510,1510,321.3161315917969,-0.0009433688246645033
4983742.825,634014720,217.19,103147927,-0.0020148351322859526,-0.17198951542377472,1510,1510,321.3538513183594,-0.00026499846717342734
4983842.825,634014724,217.19,103147922,0.013149596750736237,-0.1711830049753189,1510,1510,321.36456298828125,-0.0003424054884817451
4983942.825,634014724,217.19,103147922,0.02827310934662819,-0.16993094980716705,1510,1510,321.36395263671875,-0.0010814571287482977
4984042.825,634014728,217.19,103147917,0.03539026156067848,-0.16931763291358948,1510,1510,321.3557434082031,-0.0015479136491194367
4984142.825,634014728,217.19,103147917,0.021679712459445,-0.1651661992073059,1510,1510,321.3796081542969,-0.001449459115974605
4984242.825,634014731,217.19,103147911,0.0014173034578561783,-0.1655830293893814,1510,1510,321.3909606933594,-0.0011797663755714893
4984342.825,634014731,217.19,103147911,-0.009103065356612206,-0.16918471455574036,1510,1510,321.4021911621094,-0.0009174603619612753
4984442.825,634014735,217.19,103147906,-0.012555942870676517,-0.16186954081058502,1510,1510,321.40045166015625,-0.0012252103770151734
4984542.825,634014735,217.19,103147906,-0.00719692837446928,-0.1689571887254715,1510,1510,321.40631103515625,-0.0008775610476732254
4984642.825,634014739,217.19,103147901,-0.0035839607007801533,-0.16653883457183838,1510,1510,321.4114990234375,-0.0013498864136636257
4984742.825,634014739,217.19,103147901,0.009327629581093788,-0.17014983296394348,1510,1510,321.43756103515625,-0.0022447053343057632
4984842.825,634014742,217.19,103147896,0.0034482735209167004,-0.168514683842659,1510,1510,321.4440002441406,-0.0028292483184486628
4984942.825,634014742,217.19,103147896,0.011860247701406479,-0.16951268911361694,1510,1510,321.44891357421875,-0.00270498963072896
4985042.825,634014746,217.19,103147891,0.016451288014650345,-0.16467076539993286,1510,1510,321.483154296875,-0.0014264648780226707
4985142.825,634014746,217.19,103147891,0.012840877287089825,-0.17048367857933044,1510,1510,321.51116943359375,-0.000004747941602545325
4985242.825,634014750,217.19,103147886,0.01691056229174137,-0.1607384830713272,1510,1510,321.52398681640625,0.0010138805955648422
4985342.825,634014750,217.19,103147886,0.02746666967868805,-0.16969703137874603,1510,1510,321.5361633300781,0.0005733532598242164
4985442.825,634014753,217.18,103147881,0.02216944471001625,-0.1597171425819397,1510,1510,321.5606689453125,-0.0011551850475370884
4985542.825,634014753,217.18,103147881,0.0158147681504488,-0.1662735790014267,1510,1510,321.57421875,-0.0020844158716499805
4985642.825,634014757,217.19,103147876,0.007454290054738522,-0.15905988216400146,1510,1510,321.5900573730469,-0.002163185039535165
4985742.825,634014757,217.19,103147876,0.004943961277604103,-0.16348785161972046,1510,1510,321.6104431152344,-0.0012256160844117403
4985842.825,634014760,217.19,103147872,0.007423540111631155,-0.16559149324893951,1510,1510,321.6286315917969,-0.00028045944054611027
4985942.825,634014760,217.19,103147872,0.018745655193924904,-0.1713084876537323,1510,1510,321.6656188964844,0.00020492308249231428
4986042.825,634014764,217.18,103147867,0.02506236545741558,-0.1694369912147522,1510,1510,321.7033996582031,-0.00014463282423093915
4986142.825,634014764,217.18,103147867,0.02316800318658352,-0.17529530823230743,1510,1510,321.7254943847656,-0.0011962808202952147
4986242.825,634014767,217.18,103147862,0.016987472772598267,-0.17116715013980865,1510,1510,321.7283630371094,-0.002124284626916051
4986342.825,634014767,217.18,103147862,0.0017159429844468832,-0.16749291121959686,1510,1510,321.72991943359375,-0.0029706028290092945
4986442.825,634014771,217.19,103147857,-0.0010458182077854872,-0.16896843910217285,1510,1510,321.7572326660156,-0.0022063502110540867
4986542.825,634014771,217.19,103147857,0.0018833354115486145,-0.1547190248966217,1510,1510,321.7790222167969,-0.0007373598637059331
4986642.825,634014771,217.19,103147857,0.007097888737916946,-0.16492918133735657,1510,1510,321.7626037597656,0.0006322821718640625
4986742.825,634014774,217.18,103147853,0.019320281222462654,-0.1643746793270111,1510,1510,321.7774963378906,0.0005070751649327576
4986842.825,634014777,217.18,103147848,0.018653906881809235,-0.1723538488149643,1510,1510,321.7855224609375,-0.0005936960224062204
4986942.825,634014777,217.18,103147848,0.03603087365627289,-0.16114717721939087,1510,1510,321.7867431640625,-0.001907262485474348
4987042.825,634014780,217.18,103147844,0.02015784941613674,-0.15768848359584808,1510,1510,321.7916259765625,-0.001995539292693138
4987142.825,634014780,217.18,103147844,0.017606904730200768,-0.15907010436058044,1510,1510,321.8164367675781,-0.0010651053162291646
4987242.825,634014783,217.18,103147840,0.013897709548473358,-0.16237473487854004,1510,1510,321.843017578125,0.0004094972391612828
4987342.825,634014783,217.18,103147840,0.02007637917995453,-0.1609981209039688,1510,1510,321.84197998046875,0.0013705322053283453
4987442.825,634014786,217.17,103147836,0.029639750719070435,-0.1734655201435089,1510,1510,321.8483581542969,0.00058358273236081
4987542.825,634014786,217.17,103147836,0.023445572704076767,-0.1789536327123642,1510,1510,321.8634033203125,-0.0008395815384574234
4987642.825,634014789,217.17,103147832,0.02105732634663582,-0.17120735347270966,1510,1510,321.90203857421875,-0.00206900667399168
4987742.825,634014789,217.17,103147832,0.01075652427971363,-0.16190128028392792,1510,1510,321.9357604980469,-0.0022187416907399893
4987842.825,634014792,217.17,103147828,-0.003541648853570223,-0.16269221901893616,1510,1510,321.9948425292969,-0.0017213801620528102
4987942.825,634014792,217.17,103147828,0.009704242460429668,-0.16363829374313354,1510,1510,322.03082275390625,-0.0006372457137331367
4988042.825,634014795,217.17,103147824,0.009401936084032059,-0.1558312177658081,1510,1510,322.0347595214844,-0.00006555137952091172
4988142.825,634014795,217.17,103147824,0.010507230646908283,-0.16713249683380127,1510,1510,322.0445251464844,-0.00046516681322827935
4988242.825,634014798,217.18,103147820,0.014172345399856567,-0.16479206085205078,1510,1510,322.0433349609375,-0.0015538118313997984
4988342.825,634014798,217.18,103147820,0.011383473873138428,-0.16946293413639069,1510,1510,322.0409240722656,-0.0021669117268174887
4988442.825,634014800,217.17,103147816,0.016784878447651863,-0.16245800256729126,1510,1510,322.05670166015625,-0.0016388344811275601
4988542.825,634014800,217.17,103147816,0.024022787809371948,-0.16016000509262085,1510,1510,322.0816650390625,-0.0006465918268077075
4988642.825,634014803,217.17,103147812,0.03260555490851402,-0.15404410660266876,1510,1510,322.0792541503906,0.000195380300283432
4988742.825,634014803,217.17,103147812,0.03596225380897522,-0.16540585458278656,1510,1510,322.12469482421875,0.0003693731559906155
4988842.825,634014806,217.17,103147809,0.030781080946326256,-0.16923946142196655,1510,1510,322.14483642578125,-0.00046698207734152675
4988942.825,634014806,217.17,103147809,0.0223357155919075,-0.17054422199726105,1510,1510,322.1401062011719,-0.000823028152808547
4989042.825,634014809,217.18,103147805,0.029227815568447113,-0.1727897673845291,1510,1510,322.1519470214844,-0.0013522326480597258
4989142.825,634014809,217.18,103147805,0.014632956124842167,-0.17331750690937042,1510,1510,322.1608581542969,-0.0014989528572186828
4989242.825,634014811,217.18,103147802,0.00938551314175129,-0.16597892343997955,1510,1510,322.1474609375,-0.0015489069046452641
4989342.825,634014811,217.18,103147802,0.007452361285686493,-0.16368187963962555,1510,1510,322.136962890625,-0.0013575060293078423
4989442.825,634014814,217.18,103147798,0.016085326671600342,-0.16074609756469727,1510,1510,322.1385498046875,-0.001466267742216587
4989542.825,634014814,217.18,103147798,0.015525344759225845,-0.16866029798984528,1510,1510,322.1463317871094,-0.0017812926089391112
4989642.825,634014817,217.18,103147794,0.017759261652827263,-0.17536480724811554,1510,1510,322.1702880859375,-0.0020085496362298727
4989742.825,634014817,217.18,103147794,0.014744533225893974,-0.16577821969985962,1510,1510,322.1667175292969,-0.001409458927810192
4989842.825,634014819,217.18,103147790,0.019390219822525978,-0.16050758957862854,1510,1510,322.1702880859375,-0.001257469062693417
4989942.825,634014819,217.18,103147790,0.026280228048563004,-0.16238223016262054,1510,1510,322.1719665527344,-0.00148522958625108
4990042.825,634014822,217.17,103147788,0.026995990425348282,-0.15808652341365814,1510,1510,322.163818359375,-0.0016690470511093736
4990142.825,634014822,217.17,103147788,0.02936699613928795,-0.16171786189079285,1510,1510,322.1630859375,-0.001486663124524057
4990242.825,634014824,217.18,103147784,0.025504611432552338,-0.16970118880271912,1510,1510,322.15631103515625,-0.0008849618025124073
4990342.825,634014824,217.18,103147784,0.028924010694026947,-0.17258784174919128,1510,1510,322.148681640625,-0.00048269418766722083
4990442.825,634014827,217.18,103147780,0.02972276136279106,-0.17047350108623505,1510,1510,322.1539001464844,-0.0007965294644236565
4990542.825,634014827,217.18,103147780,0.03704845532774925,-0.17110154032707214,1510,1510,322.14227294921875,-0.0015725832199677825
4990642.825,634014829,217.18,103147777,0.023356936872005463,-0.16599604487419128,1510,1510,322.13433837890625,-0.002670222893357277
4990742.825,634014829,217.18,103147777,0.01868097484111786,-0.16291922330856323,1510,1510,322.12274169921875,-0.0024930147919803858
4990842.825,634014831,217.18,103147773,0.004761076066643,-0.16148912906646729,1510,1510,322.11212158203125,-0.0020900077652186155
4990942.825,634014831,217.18,103147773,0.004783314187079668,-0.16129444539546967,1510,1510,322.0976257324219,-0.0023598186671733856
4991042.825,634014834,217.18,103147770,0.017154108732938766,-0.17507706582546234,1510,1510,322.106201171875,-0.002771535189822316
4991142.825,634014834,217.18,103147770,0.024042615666985512,-0.16975685954093933,1510,1510,322.12445068359375,-0.00265131751075387
4991242.825,634014837,217.18,103147767,0.022064056247472763,-0.17206060886383057,1510,1510,322.141357421875,-0.0021651305723935366
4991342.825,634014837,217.18,103147767,0.018381087109446526,-0.16472351551055908,1510,1510,322.1383056640625,-0.001172647112980485
4991442.825,634014839,217.19,103147763,0.02434583567082882,-0.17352895438671112,1510,1510,322.1236572265625,-0.0012152682757005095
4991542.825,634014839,217.19,103147763,0.0344969667494297,-0.17086151242256165,1510,1510,322.1416931152344,-0.0013843800406903028
4991642.825,634014842,217.19,103147760,0.041016291826963425,-0.16383710503578186,1510,1510,322.1688232421875,-0.0013570485170930624
4991742.825,634014842,217.19,103147760,0.04911185801029205,-0.16718856990337372,1510,1510,322.1889953613281,-0.001594272442162037
4991842.825,634014844,217.2,103147756,0.036081064492464066,-0.16310878098011017,1510,1510,322.1940002441406,-0.0008439477533102036
4991942.825,634014844,217.2,103147756,0.02617054432630539,-0.1713305115699768,1510,1510,322.2185974121094,-0.0009822442661970854
4992042.825,634014846,217.2,103147753,0.015361951664090157,-0.17011944949626923,1510,1510,322.2274475097656,-0.001373313250951469
4992142.825,634014846,217.2,103147753,0.01181536540389061,-0.16465923190116882,1510,1510,322.23687744140625,-0.001845621969550848
4992242.825,634014849,217.2,103147750,0.019995609298348427,-0.1647118628025055,1510,1510,322.2364807128906,-0.0024071321822702885
4992342.825,634014849,217.2,103147750,0.01843005046248436,-0.17681562900543213,1510,1510,322.22137451171875,-0.002809643279761076
4992442.825,634014851,217.2,103147747,0.006341827102005482,-0.17101579904556274,1510,1510,322.1977844238281,-0.00328282848931849
4992542.825,634014851,217.2,103147747,0.004578764550387859,-0.16473117470741272,1900,1753,322.200439453125,-0.0026844467502087355
4992642.825,634014853,217.2,103147743,0.009451806545257568,-0.1636378914117813,1900,1753,322.26702880859375,-0.0018610412953421474
4992742.825,634014853,217.2,103147743,-0.048391859978437424,-0.12145647406578064,1794,1687,322.5338134765625,0.012828902341425419
4992842.825,634014855,217.2,103147740,0.12169384956359863,-0.1387341469526291,1794,1687,322.9481201171875,0.04504985362291336
4992942.825,634014855,217.2,103147740,-0.19608080387115479,0.07288255542516708,1794,1687,323.99566650390625,0.0777072161436081
4993042.825,634014856,217.2,103147741,-0.6979220509529114,0.1406671702861786,1794,1687,325.86602783203125,0.19872166216373444
4993142.825,634014856,217.2,103147741,-0.5038476586341858,0.07918155193328857,1794,1687,328.3649597167969,0.34917449951171875
4993242.825,634014856,217.2,103147744,-0.4569413661956787,0.0791536197066307,1794,1687,331.2832946777344,0.4540955424308777
4993342.825,634014856,217.2,103147744,-0.4276577830314636,0.020372208207845688,1794,1687,334.6430969238281,0.5322122573852539
4993442.825,634014853,217.19,103147750,-0.41659313440322876,-0.07265052199363708,1794,1687,338.4488830566406,0.6080194711685181
4993542.825,634014853,217.19,103147750,-0.403550386428833,-0.09922494739294052,1794,1687,342.67327880859375,0.6889581680297852
4993642.825,634014850,217.18,103147754,-0.35782891511917114,-0.2932766377925873,1794,1687,347.1343994140625,0.7561995983123779
4993742.825,634014850,217.18,103147754,-0.25775444507598877,-0.33110278844833374,1794,1687,351.75592041015625,0.7971218824386597
4993842.825,634014845,217.18,103147758,-0.18835389614105225,-0.3967946171760559,1794,1687,356.2781066894531,0.8130630254745483
4993942.825,634014845,217.18,103147758,-0.17656609416007996,-0.43965089321136475,1794,1687,0.7323196530342102,0.807233452796936
4994042.825,634014840,217.19,103147759,-0.184812530875206,-0.38511908054351807,1794,1687,5.225405216217041,0.8006446361541748
4994142.825,634014840,217.19,103147759,-0.24820610880851746,-0.33678343892097473,1794,1687,9.82878303527832,0.8092625737190247
4994242.825,634014833,217.17,103147758,-0.22014087438583374,-0.3622322082519531,1794,1687,14.501809120178223,0.8263561129570007
4994342.825,634014833,217.17,103147758,-0.20680475234985352,-0.4365752339363098,1794,1687,19.22745704650879,0.8359841108322144
4994442.825,634014827,217.17,103147754,-0.1375042051076889,-0.3723475933074951,1794,1687,23.865863800048828,0.8349208831787109
4994542.825,634014827,217.17,103147754,-0.1373620182275772,-0.4517589211463928,1794,1687,28.449371337890625,0.8272961378097534
4994642.825,634014821,217.16,103147747,-0.17584864795207977,-0.3905836045742035,1794,1687,33.067535400390625,0.8220100402832031
4994742.825,634014821,217.16,103147747,-0.20929913222789764,-0.43286630511283875,1794,1687,37.53181457519531,0.8269333839416504
4994842.825,634014816,217.14,103147739,0.8613067865371704,-0.5923612117767334,1510,1510,41.160789489746094,0.782697319984436
4994942.825,634014816,217.14,103147739,-0.3923654556274414,-0.23802214860916138,1720,1641,44.58982849121094,0.6221905946731567
4995042.825,634014811,217.14,103147728,-0.8987415432929993,-0.4105345904827118,1900,1753,48.698326110839844,0.602750301361084
4995142.825,634014811,217.14,103147728,-0.283532977104187,-0.21887844800949097,1900,1753,53.21559524536133,0.7426600456237793
4995242.825,634014807,217.15,103147715,0.6466313600540161,-0.3540322780609131,1510,1510,56.951229095458984,0.8250373005867004
4995342.825,634014807,217.15,103147715,0.30115824937820435,-0.7463812828063965,1510,1510,59.654197692871094,0.6534883975982666
4995442.825,634014806,217.13,103147707,0.4660690426826477,-0.4762423038482666,1510,1510,61.92235565185547,0.45086759328842163
4995542.825,634014806,217.13,103147707,0.03040975332260132,0.08553367853164673,1254,1100,64.0441665649414,0.3714011609554291
4995642.825,634014806,217.13,103147707,0.1428389549255371,-0.40663331747055054,1510,1510,66.0549087524414,0.3601502776145935
4995742.825,634014805,217.13,103147696,0.1101759523153305,-0.557650089263916,1510,1510,67.77766418457031,0.34334370493888855
4995842.825,634014804,217.13,103147687,0.26591843366622925,-0.18902435898780823,1510,1510,69.14606475830078,0.28902769088745117
4995942.825,634014804,217.13,103147687,0.12377508729696274,-0.22138164937496185,1510,1510,70.25645446777344,0.22403208911418915
4996042.825,634014805,217.14,103147679,-0.020943904295563698,-0.14852435886859894,1510,1510,71.2332992553711,0.1736428141593933
4996142.825,634014805,217.14,103147679,0.09289632737636566,0.07437680661678314,1510,1510,72.13370513916016,0.15456153452396393
4996242.825,634014805,217.13,103147671,0.08126679062843323,-0.11392194032669067,1510,1510,72.98927307128906,0.1463489532470703
4996342.825,634014805,217.13,103147671,0.0939665362238884,-0.28225240111351013,1510,1510,73.77891540527344,0.13657882809638977
4996442.825,634014805,217.12,103147664,0.0665145292878151,-0.13735312223434448,1510,1510,74.45930480957031,0.12425713986158371
4996542.825,634014805,217.12,103147664,0.1021791398525238,-0.23370979726314545,1510,1510,75.02228546142578,0.10474415868520737
4996642.825,634014805,217.12,103147657,-0.0148368701338768,-0.31461066007614136,1510,1510,75.52440643310547,0.08295728266239166
4996742.825,634014805,217.12,103147657,0.04961119592189789,-0.2110465168952942,1510,1510,76.0333480834961,0.0740642100572586
4996842.825,634014806,217.12,103147650,0.040403660386800766,-0.11657717823982239,1510,1510,76.53387451171875,0.07321777939796448
4996942.825,634014806,217.12,103147650,0.05663781613111496,-0.11865386366844177,1510,1510,77.0117416381836,0.07024314254522324
4997042.825,634014806,217.12,103147642,0.012282103300094604,-0.0062819914892315865,1510,1510,77.44723510742188,0.06725350767374039
4997142.825,634014806,217.12,103147642,0.015165137127041817,-0.06208585202693939,1510,1510,77.83577728271484,0.06309181451797485
4997242.825,634014807,217.11,103147634,-0.039222341030836105,-0.183503657579422,1510,1510,78.19169616699219,0.05598428100347519
4997342.825,634014807,217.11,103147634,-0.0022468280512839556,-0.18522658944129944,1510,1510,78.53719329833984,0.04971893131732941
4997442.825,634014807,217.1,103147627,-0.023913322016596794,-0.22149662673473358,1486,1472,78.85100555419922,0.0483708381652832
4997542.825,634014807,217.1,103147627,0.24609968066215515,-0.25510385632514954,1510,1510,79.03269958496094,0.04040498286485672
4997642.825,634014807,217.11,103147620,0.0550890788435936,-0.1775682121515274,1510,1510,79.22039031982422,0.016996173188090324
4997742.825,634014807,217.11,103147620,0.0006048098439350724,-0.17022846639156342,1510,1510,79.45793914794922,0.020659592002630234
4997842.825,634014808,217.11,103147613,0.05178219825029373,-0.20768563449382782,1510,1510,79.68165588378906,0.027605494484305382
4997942.825,634014808,217.11,103147613,0.025697702541947365,-0.09583847969770432,1510,1510,79.90898132324219,0.026625744998455048
4998042.825,634014809,217.1,103147606,0.020036010071635246,-0.0873790830373764,1510,1510,80.10236358642578,0.02522781491279602
4998142.825,634014809,217.1,103147606,-0.00411517359316349,-0.1022564023733139,1254,1100,80.29969024658203,0.02621702291071415
4998242.825,634014809,217.11,103147599,0.19429126381874084,-0.1999969780445099,1254,1100,80.32494354248047,0.022801831364631653
4998342.825,634014809,217.11,103147599,0.17157499492168427,-0.23157738149166107,1510,1510,80.27511596679688,-0.011680968105793
4998442.825,634014810,217.11,103147593,-0.04649452120065689,-0.15223181247711182,1510,1510,80.34706115722656,-0.022998027503490448
4998542.825,634014810,217.11,103147593,-0.01901330053806305,-0.16319109499454498,1510,1510,80.52594757080078,0.0012941188178956509
4998642.825,634014811,217.12,103147587,0.06180012226104736,-0.22128939628601074,1510,1510,80.67857360839844,0.018048712983727455
4998742.825,634014811,217.12,103147587,0.2028113752603531,-0.2109350562095642,1445,1572,80.7411880493164,0.011999172158539295
4998842.825,634014811,217.1,103147583,0.585359513759613,-0.1587500423192978,1363,1650,80.73922729492188,-0.003966187126934528
4998942.825,634014811,217.1,103147583,0.7213616967201233,-0.0905429944396019,1379,1634,80.74642181396484,-0.014068933203816414
4999042.825,634014812,217.09,103147584,0.634075403213501,-0.027990249916911125,1461,1556,80.78227996826172,-0.008085526525974274
4999142.825,634014812,217.09,103147584,0.29174545407295227,-0.06263168901205063,1510,1510,80.91200256347656,0.0043937754817306995
4999242.825,634014812,217.09,103147584,0.11005351692438126,-0.15075340867042542,1510,1510,81.11883544921875,0.015497306361794472
4999342.825,634014812,217.09,103147584,-0.08600445836782455,-0.16791467368602753,1510,1510,81.30502319335938,0.018362324684858322
4999442.825,634014813,217.08,103147584,-0.2094178944826126,-0.18583029508590698,1510,1510,81.48369598388672,0.013617653399705887
4999542.825,634014813,217.08,103147584,-0.101996049284935,-0.20590806007385254,1457,1560,81.54342651367188,0.005308929830789566
4999642.825,634014813,217.09,103147586,0.4136941134929657,-0.20143425464630127,1375,1638,81.54847717285156,-0.005632268264889717
4999742.825,634014813,217.09,103147586,0.5744581818580627,-0.16408318281173706,1445,1572,81.5357894897461,-0.007282261736690998
4999842.825,634014814,217.08,103147589,0.35169199109077454,-0.12250147759914398,1510,1510,81.5740966796875,0.0002677692973520607
4999942.825,634014814,217.08,103147589,0.3197054862976074,-0.08101560920476913,1510,1510,81.72555541992188,0.0128239206969738
5000042.825,634014815,217.08,103147593,0.1311301290988922,-0.07859332114458084,1510,1510,81.91889190673828,0.019493769854307175
5000142.825,634014815,217.08,103147593,-0.07371802628040314,-0.13849832117557526,1510,1510,82.03978729248047,0.01420374121516943
5000242.825,634014816,217.07,103147596,-0.22952485084533691,-0.16515952348709106,1478,1541,82.08709716796875,0.0017896236386150122
5000342.825,634014816,217.07,103147596,0.24842001497745514,-0.13759976625442505,1396,1619,82.12447357177734,-0.00710190087556839
5000442.825,634014816,217.07,103147600,0.3966871201992035,-0.15172648429870605,1371,1642,82.16329193115234,-0.005375260952860117
5000542.825,634014816,217.07,103147600,0.6905162334442139,-0.19450190663337708,1453,1564,82.21154022216797,0.0014377683401107788
5000642.825,634014817,217.07,103147609,0.42459049820899963,-0.19308385252952576,1510,1510,82.29037475585938,0.006376158911734819
5000742.825,634014817,217.07,103147609,0.30852797627449036,-0.1526099443435669,1510,1510,82.42259216308594,0.009543451480567455
5000842.825,634014818,217.06,103147618,0.06686651706695557,-0.11854438483715057,1510,1510,82.42259216308594,0.012178365141153336
5000942.825,634014818,217.06,103147618,-0.1511906385421753,-0.12696406245231628,1510,1510,82.57369232177734,0.010625895112752914
5001042.825,634014818,217.06,103147624,-0.256550669670105,-0.1176002100110054,1510,1510,82.70311737060547,0.004807011224329472
5001142.825,634014818,217.06,103147624,-0.22993528842926025,-0.14565643668174744,1510,1510,82.76537322998047,0.0004541382659226656
5001242.825,634014819,217.05,103147630,-0.10193164646625519,-0.15988977253437042,1510,1510,82.82453918457031,-0.0002882039116229862
5001342.825,634014819,217.05,103147630,0.0440463125705719,-0.1681472361087799,1510,1510,82.85628509521484,0.001171975047327578
5001442.825,634014820,217.05,103147637,0.14678743481636047,-0.18364591896533966,1510,1510,82.8620834350586,0.0024571670219302177
5001542.825,634014820,217.05,103147637,0.1671905815601349,-0.18447858095169067,1510,1510,82.89965057373047,0.002677338197827339
5001642.825,634014820,217.05,103147643,0.09060826897621155,-0.17311084270477295,1510,1510,82.95875549316406,0.004077317658811808
5001742.825,634014820,217.05,103147643,0.017474085092544556,-0.1508135348558426,1510,1510,83.05815887451172,0.0063850064761936665
5001842.825,634014821,217.05,103147649,-0.04654192924499512,-0.13460464775562286,1510,1510,83.16679382324219,0.006810166873037815
5001942.825,634014821,217.05,103147649,-0.06686115264892578,-0.1330459862947464,1510,1510,83.24014282226562,0.0029212962836027145
5002042.825,634014822,217.05,103147655,-0.06813162565231323,-0.15245072543621063,1510,1510,83.23504638671875,-0.003951753489673138
5002142.825,634014822,217.05,103147655,-0.03148756921291351,-0.16182835400104523,1510,1510,83.23616027832031,-0.006978865247219801
5002242.825,634014821,217.05,103147661,0.022923044860363007,-0.16935580968856812,1510,1510,83.27369689941406,-0.0038025074172765017
5002342.825,634014821,217.05,103147661,0.07453495264053345,-0.18187831342220306,1510,1510,83.30343627929688,0.0026366228703409433
5002442.825,634014822,217.04,103147666,0.09124177694320679,-0.1854051947593689,1510,1510,83.35307312011719,0.005870454479008913
5002542.825,634014822,217.04,103147666,0.08624990284442902,-0.18539810180664062,1510,1510,83.38267517089844,0.004461461212486029
5002642.825,634014823,217.04,103147672,0.030313391238451004,-0.1726885437965393,1510,1510,83.43510437011719,0.00036282112705521286
5002742.825,634014823,217.04,103147672,-0.011640633456408978,-0.14789295196533203,1510,1510,83.45848083496094,-0.0028675899375230074
5002842.825,634014823,217.05,103147678,-0.036641113460063934,-0.13562843203544617,1510,1510,83.47454071044922,-0.005665416829288006
5002942.825,634014823,217.05,103147678,-0.039964865893125534,-0.14090271294116974,1510,1510,83.48020935058594,-0.007461142726242542
5003042.825,634014823,217.05,103147683,-0.026640497148036957,-0.14984339475631714,1510,1510,83.50423431396484,-0.004484719596803188
5003142.825,634014823,217.05,103147683,0.02294321171939373,-0.16717594861984253,1510,1510,83.56413269042969,0.0013313465751707554
5003242.825,634014824,217.04,103147688,0.07261846959590912,-0.18443962931632996,1510,1510,83.6010513305664,0.004029258619993925
5003342.825,634014824,217.04,103147688,0.09632608294487,-0.19295069575309753,1510,1510,83.61486053466797,0.0006679088110104203
5003442.825,634014825,217.05,103147693,0.0741870254278183,-0.18340469896793365,1510,1510,83.61807250976562,-0.00560759799554944
5003542.825,634014825,217.05,103147693,0.023615548387169838,-0.17043565213680267,1510,1510,83.58524322509766,-0.009101897478103638
5003642.825,634014825,217.05,103147698,-0.00998709723353386,-0.1420590877532959,1510,1510,83.60535430908203,-0.006935039535164833
5003742.825,634014825,217.05,103147698,-0.03569680452346802,-0.13105523586273193,1510,1510,83.61758422851562,-0.003210629103705287
5003842.825,634014825,217.05,103147703,-0.024909978732466698,-0.13502083718776703,1510,1510,83.67542266845703,-0.0015095921698957682
5003942.825,634014825,217.05,103147703,-0.0007274707313627005,-0.16922540962696075,1510,1510,83.70170593261719,-0.0010196241782978177
5004042.825,634014826,217.06,103147708,0.037209514528512955,-0.19067898392677307,1510,1510,83.72294616699219,-0.0015379212563857436
5004142.825,634014826,217.06,103147708,0.06554320454597473,-0.1866985410451889,1510,1510,83.71324920654297,-0.003140601795166731
5004242.825,634014826,217.06,103147712,0.06834860146045685,-0.17899861931800842,1510,1510,83.71253204345703,-0.006109914276748896
5004342.825,634014826,217.06,103147712,0.04583022743463516,-0.1659356653690338,1510,1510,83.68571472167969,-0.008236503228545189
5004442.825,634014826,217.06,103147717,0.01618668995797634,-0.15384310483932495,1510,1510,83.68456268310547,-0.0065261442214250565
5004542.825,634014826,217.06,103147717,0.0008691495750099421,-0.13937799632549286,1510,1510,83.73262786865234,-0.0010933548910543323
5004642.825,634014827,217.07,103147722,0.005869915708899498,-0.1466093212366104,1510,1510,83.79318237304688,0.0022863023914396763
5004742.825,634014827,217.07,103147722,0.009865952655673027,-0.16013740003108978,1510,1510,83.83927154541016,0.0007847818778827786
5004842.825,634014827,217.06,103147726,0.01516313012689352,-0.18251100182533264,1510,1510,83.88114929199219,-0.0033536585979163647
5004942.825,634014827,217.06,103147726,0.028709514066576958,-0.18386660516262054,1510,1510,83.90080261230469,-0.006414075382053852
5005042.825,634014828,217.07,103147731,0.03649325296282768,-0.1781853437423706,1510,1510,83.86491394042969,-0.006513973698019981
5005142.825,634014828,217.07,103147731,0.040172457695007324,-0.16779029369354248,1510,1510,83.87226104736328,-0.003323731943964958
5005242.825,634014828,217.08,103147736,0.04175345599651337,-0.1506935954093933,1510,1510,83.93028259277344,0.0008602418238297105
5005342.825,634014828,217.08,103147736,0.04107610881328583,-0.14562338590621948,1510,1510,83.96137237548828,0.0024283751845359802
5005442.825,634014829,217.07,103147740,0.02899429388344288,-0.14981256425380707,1510,1510,83.98125457763672,0.0009774856735020876
5005542.825,634014829,217.07,103147740,0.007384071126580238,-0.16128626465797424,1510,1510,83.98871612548828,-0.0017144569428637624
5005642.825,634014830,217.07,103147745,-0.0012644990347325802,-0.1703483909368515,1510,1510,83.96403503417969,-0.00447741337120533
5005742.825,634014830,217.07,103147745,0.00009560910984873772,-0.1832764595746994,1510,1510,83.95940399169922,-0.00581722054630518
5005842.825,634014830,217.07,103147750,0.022435961291193962,-0.18236006796360016,1510,1510,83.96467590332031,-0.0048446934670209885
5005942.825,634014830,217.07,103147750,0.040338873863220215,-0.1637597233057022,1510,1510,83.9893798828125,-0.0014453496551141143
5006042.825,634014831,217.07,103147754,0.05143630877137184,-0.15306688845157623,1510,1510,84.03104400634766,0.001568587962538004
5006142.825,634014831,217.07,103147754,0.057525038719177246,-0.15055550634860992,1510,1510,84.07120513916016,0.0031984029337763786
5006242.825,634014831,217.08,103147758,0.03966953232884407,-0.14666007459163666,1510,1510,84.12784576416016,0.0009180871420539916
5006342.825,634014831,217.08,103147758,0.0017589526250958443,-0.15973889827728271,1510,1510,84.14471435546875,-0.0028746756725013256
5006442.825,634014832,217.07,103147763,-0.012791553512215614,-0.1718459576368332,1510,1510,84.13452911376953,-0.004344761371612549
5006542.825,634014832,217.07,103147763,0.004906748421490192,-0.17600737512111664,1900,1753,84.14314270019531,-0.0036456191446632147
5006642.825,634014832,217.07,103147763,0.03346754238009453,-0.08335066586732864,1900,1753,84.17719268798828,0.003251581685617566
5006742.825,634014832,217.08,103147767,0.0026141589041799307,-0.1573348045349121,1510,1510,84.43464660644531,0.03962523117661476
5006842.825,634014833,217.08,103147771,0.16317205131053925,-0.19627892971038818,1510,1510,84.63555908203125,0.0418006107211113
5006942.825,634014833,217.08,103147771,0.07409502565860748,-0.06855182349681854,1510,1510,84.84503173828125,0.031427375972270966
5007042.825,634014833,217.09,103147775,0.07468420267105103,-0.16299018263816833,1510,1510,85.00848388671875,0.026908479630947113
5007142.825,634014833,217.09,103147775,-0.03997401148080826,-0.19919279217720032,1510,1510,85.20362854003906,0.028468959033489227
5007242.825,634014833,217.08,103147779,-0.0017027407884597778,-0.1587587594985962,1510,1510,85.41488647460938,0.030745308846235275
5007342.825,634014833,217.08,103147779,-0.025282710790634155,-0.198349267244339,1510,1510,85.62740325927734,0.032046400010585785
5007442.825,634014834,217.09,103147783,0.028643306344747543,-0.20619533956050873,1510,1510,85.8136215209961,0.03160415217280388
5007542.825,634014834,217.09,103147783,0.07139571756124496,-0.14301566779613495,1510,1510,85.99433898925781,0.02895517647266388
5007642.825,634014835,217.11,103147788,0.07858528196811676,-0.15366296470165253,1510,1510,86.11927032470703,0.023026349022984505
5007742.825,634014835,217.11,103147788,0.06197228282690048,-0.1660546064376831,1510,1510,86.2416763305664,0.01720711961388588
5007842.825,634014835,217.1,103147791,0.029673852026462555,-0.12420745193958282,1504,1500,86.35871124267578,0.015253252349793911
5007942.825,634014835,217.1,103147791,0.008856536820530891,-0.15529894828796387,1504,1500,86.4698257446289,0.017648328095674515
5008042.825,634014836,217.12,103147796,-0.007447725627571344,-0.18714924156665802,1498,1491,86.60491943359375,0.020646827295422554
5008142.825,634014836,217.12,103147796,0.008249513804912567,-0.18334707617759705,1494,1484,86.7573471069336,0.019214579835534096
5008242.825,634014837,217.13,103147799,-0.011490337550640106,-0.2025190144777298,1510,1510,86.83909606933594,0.010972799733281136
5008342.825,634014837,217.13,103147799,0.009999848902225494,-0.19541817903518677,1510,1510,86.82392120361328,-0.00341581623069942
5008442.825,634014837,217.14,103147803,0.020996233448386192,-0.16738730669021606,1510,1510,86.81634521484375,-0.004743024241179228
5008542.825,634014837,217.14,103147803,0.030147649347782135,-0.12299807369709015,1510,1510,86.86507415771484,0.000057968391047324985
5008642.825,634014838,217.15,103147807,0.05314302816987038,-0.1629224568605423,1510,1510,86.89163208007812,0.0029059522785246372
5008742.825,634014838,217.15,103147807,0.060031015425920486,-0.171741783618927,1510,1510,86.8841781616211,0.0011476743966341019
5008842.825,634014838,217.16,103147811,0.05739734694361687,-0.1532813161611557,1510,1510,86.8464584350586,-0.002229988342151046
5008942.825,634014838,217.16,103147811,0.04734266176819801,-0.19000577926635742,1510,1510,86.83963775634766,-0.003258327953517437
5009042.825,634014839,217.16,103147815,0.02893488109111786,-0.17594856023788452,1510,1510,86.87237548828125,-0.002539771143347025
5009142.825,634014839,217.16,103147815,0.0310240276157856,-0.15625980496406555,1510,1510,86.89108276367188,-0.001165847759693861
5009242.825,634014840,217.16,103147819,0.010608530603349209,-0.16571815311908722,1510,1510,86.8753433227539,-0.0012956301216036081
5009342.825,634014840,217.16,103147819,0.011170795187354088,-0.15830856561660767,1510,1510,86.8475341796875,-0.0017672051908448339
5009442.825,634014840,217.16,103147823,0.012620018795132637,-0.14728157222270966,1510,1510,86.8346176147461,-0.0028373149689286947
5009542.825,634014840,217.16,103147823,0.032683126628398895,-0.1776629090309143,1510,1510,86.82626342773438,-0.003346166806295514
5009642.825,634014841,217.17,103147827,0.03327608108520508,-0.19196853041648865,1510,1510,86.8228759765625,-0.005024397280067205
5009742.825,634014841,217.17,103147827,0.06030731275677681,-0.17182433605194092,1510,1510,86.80470275878906,-0.005576327443122864
5009842.825,634014842,217.18,103147831,0.04087519273161888,-0.1553475558757782,1510,1510,86.7980728149414,-0.003992912359535694
5009942.825,634014842,217.18,103147831,0.036682214587926865,-0.14673735201358795,1510,1510,86.77284240722656,-0.0012690072180703282
5010042.825,634014842,217.18,103147834,0.01860177144408226,-0.1489909589290619,1510,1510,86.79608917236328,-0.001227746601216495
5010142.825,634014842,217.18,103147834,0.012429129332304,-0.17003118991851807,1510,1510,86.7962875366211,-0.003664563409984112
5010242.825,634014842,217.19,103147838,0.004201963543891907,-0.1722164750099182,1510,1510,86.7770767211914,-0.006745832972228527
5010342.825,634014842,217.19,103147838,0.029763784259557724,-0.1749574989080429,1510,1510,86.76799011230469,-0.006664768792688847
5010442.825,634014843,217.19,103147842,0.043285079300403595,-0.16086484491825104,1510,1510,86.75505828857422,-0.003909408580511808
5010542.825,634014843,217.19,103147842,0.04866236820816994,-0.1593710035085678,1510,1510,86.76248168945312,-0.00027314090402796865
5010642.825,634014844,217.2,103147845,0.04016691446304321,-0.1545635163784027,1510,1510,86.78666687011719,0.000699204858392477
5010742.825,634014844,217.2,103147845,0.02259436808526516,-0.1398957371711731,1510,1510,86.77352905273438,-0.001820659963414073
5010842.825,634014844,217.2,103147849,0.01232186146080494,-0.15762187540531158,1510,1510,86.76741790771484,-0.005476861260831356
5010942.825,634014844,217.2,103147849,0.018335405737161636,-0.17634181678295135,1510,1510,86.75494384765625,-0.007122667506337166
5011042.825,634014845,217.22,103147853,0.019685201346874237,-0.1848374605178833,1510,1510,86.71973419189453,-0.006303801666945219
5011142.825,634014845,217.22,103147853,0.04326814040541649,-0.18045540153980255,1510,1510,86.71424102783203,-0.0037062608171254396
5011242.825,634014846,217.22,103147856,0.04103757068514824,-0.15937070548534393,1510,1510,86.72103881835938,-0.0010390742681920528
5011342.825,634014846,217.22,103147856,0.044306680560112,-0.14653445780277252,1510,1510,86.73444366455078,0.00018602839554660022
5011442.825,634014847,217.23,103147860,0.02928873524069786,-0.15167129039764404,1510,1510,86.732666015625,-0.0011999644339084625
5011542.825,634014847,217.23,103147860,0.0090872747823596,-0.16591550409793854,1510,1510,86.77600860595703,-0.0038340683095157146
5011642.825,634014848,217.25,103147863,0.00943363644182682,-0.1781945675611496,1510,1510,86.76083374023438,-0.005353820510208607
5011742.825,634014848,217.25,103147863,0.01652957685291767,-0.17814183235168457,1510,1510,86.71855163574219,-0.004520999267697334
5011842.825,634014848,217.25,103147867,0.03285223990678787,-0.16287945210933685,1510,1510,86.72635650634766,-0.0015085168415680528
5011942.825,634014848,217.25,103147867,0.03891024738550186,-0.15358823537826538,1510,1510,86.71952819824219,0.0022962403018027544
5012042.825,634014848,217.24,103147872,0.0341622568666935,-0.1570463329553604,1510,1510,86.74262237548828,0.0031643244437873363
5012142.825,634014848,217.24,103147872,0.026055682450532913,-0.15803200006484985,1510,1510,86.75780487060547,0.0006684991531074047
5012242.825,634014849,217.25,103147875,0.017025137320160866,-0.1604483723640442,1510,1510,86.76921081542969,-0.0028949116822332144
5012342.825,634014849,217.25,103147875,0.017407216131687164,-0.1735685020685196,1510,1510,86.78894805908203,-0.004529937170445919
5012442.825,634014850,217.26,103147879,0.036395762115716934,-0.1760949194431305,1510,1510,86.77922821044922,-0.0023877748753875494
5012542.825,634014850,217.26,103147879,0.04069874808192253,-0.17519265413284302,1510,1510,86.80290985107422,0.0010469352127984166
5012642.825,634014850,217.26,103147883,0.044342439621686935,-0.15379613637924194,1510,1510,86.85684967041016,0.003774629905819893
5012742.825,634014850,217.26,103147883,0.0424293577671051,-0.15088292956352234,1510,1510,86.89690399169922,0.0032867088448256254
5012842.825,634014850,217.28,103147886,0.021169694140553474,-0.15237927436828613,1510,1510,86.89690399169922,0.0005683198687620461
5012942.825,634014850,217.28,103147886,0.012843256816267967,-0.16903313994407654,1510,1510,86.90947723388672,-0.002120607765391469
5013042.825,634014852,217.29,103147890,0.016925539821386337,-0.17121270298957825,1510,1510,86.91120147705078,-0.0025372689124196768
5013142.825,634014852,217.29,103147890,0.024023260921239853,-0.16232067346572876,1510,1510,86.92922973632812,-0.000057121695135720074
5013242.825,634014851,217.29,103147893,0.033384837210178375,-0.15871556103229523,1510,1510,86.94795227050781,0.003221321851015091
5013342.825,634014851,217.29,103147893,0.0449393205344677,-0.16223670542240143,1510,1510,86.99871826171875,0.004320959094911814
5013442.825,634014851,217.29,103147897,0.0358889140188694,-0.1597457081079483,1510,1510,87.0035171508789,0.0032504117116332054
5013542.825,634014851,217.29,103147897,0.03369339182972908,-0.1591998040676117,1510,1510,87.02057647705078,0.0010295482352375984
5013642.825,634014852,217.3,103147900,0.01950833760201931,-0.16586634516716003,1510,1510,87.02861785888672,-0.0006203929078765213
5013742.825,634014852,217.3,103147900,0.014687003567814827,-0.17401893436908722,1510,1510,87.02413177490234,-0.0002946571330539882
5013842.825,634014853,217.31,103147903,0.027330320328474045,-0.1747906506061554,1510,1510,87.04478454589844,0.0008323683869093657
5013942.825,634014853,217.31,103147903,0.041637398302555084,-0.16814176738262177,1510,1510,87.09943389892578,0.003117479383945465
5014042.825,634014852,217.32,103147907,0.042434751987457275,-0.15646065771579742,1510,1510,87.17546081542969,0.004492496140301228
5014142.825,634014852,217.32,103147907,0.032491810619831085,-0.14960990846157074,1510,1510,87.2027587890625,0.003803691826760769
5014242.825,634014853,217.32,103147911,0.02907145582139492,-0.1492370218038559,1510,1510,87.21297454833984,0.00195670104585588
5014342.825,634014853,217.32,103147911,0.02608417347073555,-0.15650711953639984,1510,1510,87.2152099609375,-0.00017336427117697895
5014442.825,634014854,217.32,103147914,0.016072867438197136,-0.17520876228809357,1510,1510,87.1910171508789,-0.0008205423364415765
5014542.825,634014854,217.32,103147914,0.020534517243504524,-0.16436561942100525,1510,1510,87.2165298461914,0.001702090259641409
5014642.825,634014855,217.34,103147917,0.03406168892979622,-0.1570875346660614,1510,1510,87.24043273925781,0.004306045360863209
5014742.825,634014855,217.34,103147917,0.036746419966220856,-0.1612345576286316,1510,1510,87.29346466064453,0.005207673646509647
5014842.825,634014855,217.34,103147920,0.034211963415145874,-0.16457733511924744,1510,1510,87.32461547851562,0.0034902619663625956
5014942.825,634014855,217.34,103147920,0.024817895144224167,-0.1650518774986267,1510,1510,87.35948944091797,0.0015405023004859686
5015042.825,634014856,217.36,103147923,0.017371226102113724,-0.17132697999477386,1510,1510,87.35697174072266,0.0015479335561394691
5015142.825,634014856,217.36,103147923,0.03961179777979851,-0.17357861995697021,1510,1510,87.41238403320312,0.002605134854093194
5015242.825,634014857,217.37,103147926,0.034928061068058014,-0.17291714251041412,1510,1510,87.45842742919922,0.0036574925761669874
5015342.825,634014857,217.37,103147926,0.031182125210762024,-0.1591387391090393,1510,1510,87.52161407470703,0.005539602600038052
5015442.825,634014857,217.38,103147929,0.031127190217375755,-0.15280915796756744,1510,1510,87.5925064086914,0.0076022762805223465
5015542.825,634014857,217.38,103147929,0.030162706971168518,-0.1522238850593567,1510,1510,87.65005493164062,0.007914840243756771
5015642.825,634014858,217.39,103147932,0.025795547291636467,-0.1562218815088272,1510,1510,87.68791961669922,0.006035774014890194
5015742.825,634014858,217.39,103147932,0.0360473096370697,-0.17447203397750854,1510,1510,87.74060821533203,0.004286490380764008
5015842.825,634014858,217.4,103147935,0.026770370081067085,-0.16318392753601074,1510,1510,87.77982330322266,0.004358109552413225
5015942.825,634014858,217.4,103147935,0.02377472072839737,-0.1497381627559662,1510,1510,87.83328247070312,0.0072867488488554955
5016042.825,634014859,217.4,103147938,0.029465965926647186,-0.14530453085899353,1510,1510,87.92594909667969,0.01032504066824913
5016142.825,634014859,217.4,103147938,0.036137718707323074,-0.1504950225353241,1510,1510,87.98527526855469,0.01066981628537178
5016242.825,634014859,217.41,103147941,0.03066304884850979,-0.16573983430862427,1510,1510,88.05083465576172,0.0072224196046590805
5016342.825,634014859,217.41,103147941,0.01770065352320671,-0.17509028315544128,1510,1510,88.07115173339844,0.004738175310194492
5016442.825,634014860,217.42,103147944,0.023471243679523468,-0.17017057538032532,1510,1510,88.1219711303711,0.005598043091595173
5016542.825,634014860,217.42,103147944,0.028335899114608765,-0.16568851470947266,1510,1510,88.17066955566406,0.009342801757156849
5016642.825,634014860,217.42,103147947,0.03610531985759735,-0.16803310811519623,1510,1510,88.24510955810547,0.01239299401640892
5016742.825,634014860,217.42,103147947,0.02868000790476799,-0.17206895351409912,1510,1510,88.27500915527344,0.012904340401291847
5016842.825,634014861,217.43,103147950,0.027077171951532364,-0.15948368608951569,1510,1510,88.31085968017578,0.011582860723137856
5016942.825,634014861,217.43,103147950,0.030836330726742744,-0.1563161313533783,1510,1510,88.37400817871094,0.010742438957095146
5017042.825,634014861,217.44,103147952,0.03745688125491142,-0.14994655549526215,1510,1510,88.44900512695312,0.010780250653624535
5017142.825,634014861,217.44,103147952,0.0289696604013443,-0.15013672411441803,1510,1510,88.51801300048828,0.011874869465827942
5017242.825,634014861,217.45,103147955,0.02087392471730709,-0.1598544716835022,1510,1510,88.57111358642578,0.012857469730079174
5017342.825,634014861,217.45,103147955,0.02446005307137966,-0.17404969036579132,1510,1510,88.66541290283203,0.014598360285162926
5017442.825,634014862,217.45,103147958,0.03592657670378685,-0.17110604047775269,1510,1510,88.73431396484375,0.014751831069588661
5017542.825,634014862,217.45,103147958,0.03824956715106964,-0.15809158980846405,1510,1510,88.78496551513672,0.01333094947040081
5017642.825,634014862,217.46,103147961,0.03830215334892273,-0.1534825563430786,1510,1510,88.84586334228516,0.011462065391242504
5017742.825,634014862,217.46,103147961,0.02114643156528473,-0.1617516577243805,1510,1510,88.92341613769531,0.01152622140944004
5017842.825,634014863,217.47,103147963,0.018853427842259407,-0.16319318115711212,1510,1510,89.01576232910156,0.014049969613552094
5017942.825,634014863,217.47,103147963,0.025774460285902023,-0.1697525680065155,1510,1510,89.11713409423828,0.01686963066458702
5018042.825,634014863,217.48,103147965,0.03973839432001114,-0.1665770709514618,1510,1510,89.228271484375,0.01651882566511631
5018142.825,634014863,217.48,103147965,0.043062735348939896,-0.17012372612953186,1510,1510,89.32740783691406,0.014520050957798958
5018242.825,634014864,217.49,103147968,0.02804279699921608,-0.15799733996391296,1510,1510,89.39883422851562,0.01437570620328188
5018342.825,634014864,217.49,103147968,0.023153407499194145,-0.15444867312908173,1510,1510,89.51058959960938,0.015982121229171753
5018442.825,634014864,217.5,103147970,0.024425216019153595,-0.16687150299549103,1510,1510,89.6128921508789,0.017558196559548378
5018542.825,634014864,217.5,103147970,0.030688980594277382,-0.16624082624912262,1510,1510,89.68568420410156,0.016644194722175598
5018642.825,634014865,217.51,103147973,0.03544379025697708,-0.1649663746356964,1510,1510,89.75894927978516,0.016243450343608856
5018742.825,634014865,217.51,103147973,0.029319455847144127,-0.1627892553806305,1510,1510,89.84004211425781,0.01639016531407833
5018842.825,634014865,217.52,103147976,0.032386474311351776,-0.16077762842178345,1510,1510,89.95099639892578,0.017096607014536858
5018942.825,634014865,217.52,103147976,0.0361177995800972,-0.1655840277671814,1510,1510,90.08369445800781,0.017075814306735992
5019042.825,634014866,217.53,103147978,0.033540137112140656,-0.1649358570575714,1510,1510,90.18999481201172,0.015577971003949642
5019142.825,634014866,217.53,103147978,0.03237513452768326,-0.16346943378448486,1510,1510,90.26992797851562,0.01528942957520485
5019242.825,634014866,217.54,103147981,0.029251176863908768,-0.16798202693462372,1510,1510,90.34883880615234,0.015841171145439148
5019342.825,634014866,217.54,103147981,0.031121443957090378,-0.1635100543498993,1510,1510,90.45964813232422,0.017397362738847733
5019442.825,634014866,217.55,103147984,0.038181841373443604,-0.16149382293224335,1510,1510,90.5473403930664,0.018142931163311005
5019542.825,634014866,217.55,103147984,0.04009923338890076,-0.17146340012550354,1510,1510,90.66178131103516,0.016723565757274628
5019642.825,634014867,217.56,103147986,0.03165491297841072,-0.160352423787117,1510,1510,90.7513427734375,0.014211135916411877
5019742.825,634014867,217.56,103147986,0.01818985491991043,-0.1502823531627655,1510,1510,90.8291244506836,0.01479235291481018
5019842.825,634014867,217.56,103147988,0.030977467074990273,-0.16213534772396088,1510,1510,90.92008972167969,0.016791176050901413
5019942.825,634014867,217.56,103147988,0.03714432567358017,-0.16898703575134277,1510,1510,91.00361633300781,0.0178273543715477
5020042.825,634014867,217.56,103147991,0.03908978030085564,-0.17407730221748352,1510,1510,91.10771179199219,0.016079306602478027
5020142.825,634014867,217.56,103147991,0.03991658613085747,-0.16886979341506958,1510,1510,91.18202209472656,0.01382324006408453
5020242.825,634014867,217.58,103147993,0.028248824179172516,-0.15940314531326294,1510,1510,91.29150390625,0.013756339438259602
5020342.825,634014867,217.58,103147993,0.02740471437573433,-0.16532522439956665,1510,1510,91.37544250488281,0.014914646744728088
5020442.825,634014868,217.58,103147996,0.026395507156848907,-0.17780040204524994,1510,1510,91.44928741455078,0.01530661154538393
5020542.825,634014868,217.58,103147996,0.03206610679626465,-0.16012337803840637,1510,1510,91.53280639648438,0.014475875534117222
5020642.825,634014868,217.58,103147998,0.030327806249260902,-0.15433098375797272,1510,1510,91.63133239746094,0.014029420912265778
5020742.825,634014868,217.58,103147998,0.03204713389277458,-0.15695464611053467,1510,1510,91.73040008544922,0.013811523094773293
5020842.825,634014868,217.59,103148000,0.03171910345554352,-0.15389114618301392,1510,1510,91.82866668701172,0.014147263020277023
5020942.825,634014868,217.59,103148000,0.033031824976205826,-0.15024477243423462,1510,1510,91.9127197265625,0.013580694794654846
5021042.825,634014868,217.6,103148003,0.028020378202199936,-0.15795668959617615,1510,1510,91.98973083496094,0.012890953570604324
5021142.825,634014868,217.6,103148003,0.02375660464167595,-0.1721678227186203,1510,1510,92.047119140625,0.01297259796410799
5021242.825,634014869,217.6,103148005,0.021604545414447784,-0.18277950584888458,1510,1510,92.0965576171875,0.012842133641242981
5021342.825,634014869,217.6,103148005,0.037405095994472504,-0.16576313972473145,1510,1510,92.15636444091797,0.013311496004462242
5021442.825,634014869,217.61,103148007,0.036412037909030914,-0.16426753997802734,1510,1510,92.26920318603516,0.013421423733234406
5021542.825,634014869,217.61,103148007,0.03421095758676529,-0.1615976244211197,1510,1510,92.33817291259766,0.012282734736800194
5021642.825,634014869,217.61,103148011,0.030718572437763214,-0.17377282679080963,1510,1510,92.43890380859375,0.011124256998300552
5021742.825,634014869,217.61,103148011,0.03315854072570801,-0.16221840679645538,1510,1510,92.4898910522461,0.010632174089550972
5021842.825,634014869,217.62,103148013,0.04143734276294708,-0.15713953971862793,1510,1510,92.53423309326172,0.011116810142993927
5021942.825,634014869,217.62,103148013,0.038612693548202515,-0.15916481614112854,1510,1510,92.57367706298828,0.012185542844235897
5022042.825,634014869,217.62,103148015,0.033111900091171265,-0.16382372379302979,1510,1510,92.62358093261719,0.012219825759530067
5022142.825,634014869,217.62,103148015,0.024371949955821037,-0.166950523853302,1510,1510,92.665283203125,0.011708127334713936
5022242.825,634014869,217.63,103148018,0.023289818316698074,-0.1739180088043213,1510,1510,92.71592712402344,0.01082663144916296
5022342.825,634014869,217.63,103148018,0.034938666969537735,-0.16847364604473114,1510,1510,92.7774887084961,0.010333442129194736
5022442.825,634014870,217.63,103148021,0.034538671374320984,-0.16319145262241364,1510,1510,92.84593200683594,0.00981089472770691
5022542.825,634014870,217.63,103148021,0.030520819127559662,-0.15115229785442352,1510,1510,92.91289520263672,0.00991075485944748
5022642.825,634014870,217.64,103148023,0.023992128670215607,-0.1556253433227539,1510,1510,92.96440124511719,0.010411292314529419
5022742.825,634014870,217.64,103148023,0.02802208624780178,-0.17234645783901215,1510,1510,93.00508117675781,0.010882669128477573
5022842.825,634014870,217.65,103148026,0.039378419518470764,-0.1744990050792694,1510,1510,93.06407165527344,0.009705878794193268
5022942.825,634014870,217.65,103148026,0.038791462779045105,-0.1604977697134018,1510,1510,93.11994934082031,0.007107459008693695
5023042.825,634014871,217.65,103148027,0.027233462780714035,-0.15531638264656067,1510,1510,93.2026596069336,0.006780289113521576
5023142.825,634014871,217.65,103148027,0.024673840031027794,-0.1607838273048401,1510,1510,93.26763916015625,0.007863299921154976
5023242.825,634014870,217.66,103148030,0.02533266693353653,-0.15917512774467468,1510,1510,93.35227966308594,0.009242076426744461
5023342.825,634014870,217.66,103148030,0.03333931043744087,-0.16090983152389526,1510,1510,93.3943099975586,0.009371517226099968
5023442.825,634014871,217.67,103148032,0.032445020973682404,-0.17036482691764832,1510,1510,93.4581069946289,0.00803513452410698
5023542.825,634014871,217.67,103148032,0.031164221465587616,-0.173740416765213,1510,1510,93.5154037475586,0.006416718941181898
5023642.825,634014871,217.67,103148035,0.02577763982117176,-0.16983360052108765,1510,1510,93.57196044921875,0.005802467465400696
5023742.825,634014871,217.67,103148035,0.030797097831964493,-0.15993136167526245,1510,1510,93.62120056152344,0.006300319917500019
5023842.825,634014871,217.68,103148037,0.02832062356173992,-0.17359058558940887,1510,1510,93.67119598388672,0.0065698446705937386
5023942.825,634014871,217.68,103148037,0.03576476871967316,-0.17130951583385468,1510,1510,93.7364730834961,0.005695311818271875
5024042.825,634014872,217.68,103148041,0.03315191715955734,-0.162125363945961,1510,1510,93.75189971923828,0.004118894226849079
5024142.825,634014872,217.68,103148041,0.03472637012600899,-0.15180842578411102,1510,1510,93.79544067382812,0.003993988037109375
5024242.825,634014871,217.69,103148043,0.03498973324894905,-0.15023407340049744,1510,1510,93.83775329589844,0.004612657241523266
5024342.825,634014871,217.69,103148043,0.04014091566205025,-0.16642098128795624,1510,1510,93.86070251464844,0.004244388081133366
5024442.825,634014872,217.69,103148045,0.03026954084634781,-0.17059054970741272,1510,1510,93.89798736572266,0.0028863989282399416
5024542.825,634014872,217.69,103148045,0.025672562420368195,-0.17224043607711792,1510,1510,93.9337387084961,0.0021174605935811996
5024642.825,634014872,217.7,103148048,0.027870263904333115,-0.16916684806346893,1510,1510,93.92366027832031,0.0032337254378944635
5024742.825,634014872,217.7,103148048,0.029606550931930542,-0.16990438103675842,1510,1510,93.96027374267578,0.003886098274961114
5024842.825,634014872,217.7,103148050,0.029622703790664673,-0.16563935577869415,1510,1510,93.97898864746094,0.0023720497265458107
5024942.825,634014872,217.7,103148050,0.038692623376846313,-0.16483691334724426,1510,1510,93.95999145507812,0.000044232747313799337
5025042.825,634014872,217.71,103148052,0.03763171657919884,-0.16236597299575806,1510,1510,93.97576904296875,-0.0004943952662870288
5025142.825,634014872,217.71,103148052,0.03886952996253967,-0.15854346752166748,1510,1510,94.02022552490234,-0.00032307161018252373
5025242.825,634014872,217.71,103148055,0.035306818783283234,-0.16681347787380219,1510,1510,94.01119995117188,-0.0002914986980613321
5025342.825,634014872,217.71,103148055,0.03150545433163643,-0.16661515831947327,1510,1510,94.03486633300781,-0.0007718708948232234
5025442.825,634014873,217.72,103148058,0.029415834695100784,-0.16847223043441772,1510,1510,94.01673126220703,-0.0019149729050695896
5025542.825,634014873,217.72,103148058,0.02710655890405178,-0.1673058271408081,1510,1510,94.02198028564453,-0.002675499301403761
5025642.825,634014872,217.72,103148060,0.027909647673368454,-0.16843736171722412,1510,1510,94.01001739501953,-0.0025640958920121193
5025742.825,634014872,217.72,103148060,0.025807004421949387,-0.16225573420524597,1510,1510,94.01036071777344,-0.0024253753945231438
5025842.825,634014873,217.73,103148062,0.035594597458839417,-0.15260785818099976,1510,1510,94.01082611083984,-0.0022180327214300632
5025942.825,634014873,217.73,103148062,0.038964882493019104,-0.16265985369682312,1510,1510,94.01080322265625,-0.0032550871837884188
5026042.825,634014873,217.73,103148065,0.03572745621204376,-0.16482168436050415,1510,1510,94.00924682617188,-0.0037989856209605932
5026142.825,634014873,217.73,103148065,0.03479449450969696,-0.17271150648593903,1510,1510,93.98951721191406,-0.004322702996432781
5026242.825,634014873,217.73,103148068,0.035484589636325836,-0.17328844964504242,1510,1510,93.97744750976562,-0.004270651377737522
5026342.825,634014873,217.73,103148068,0.03235526382923126,-0.1727769374847412,1510,1510,93.95223236083984,-0.004988758359104395
5026442.825,634014873,217.74,103148070,0.02381710708141327,-0.166083425283432,1510,1510,93.92638397216797,-0.006444700062274933
5026542.825,634014873,217.74,103148070,0.024311497807502747,-0.15806059539318085,1510,1510,93.91085815429688,-0.006342917215079069
5026642.825,634014873,217.74,103148072,0.02707601524889469,-0.16248370707035065,1510,1510,93.91815185546875,-0.005674791522324085
5026742.825,634014873,217.74,103148072,0.04733717069029808,-0.17184364795684814,1510,1510,93.8934097290039,-0.005785791203379631
5026842.825,634014873,217.74,103148072,0.036833446472883224,-0.16878974437713623,1510,1510,93.821044921875,-0.006861566565930843
5026942.825,634014873,217.74,103148075,0.034871362149715424,-0.16960608959197998,1510,1510,93.81109619140625,-0.00706668384373188
5027042.825,634014873,217.74,103148077,0.027784092351794243,-0.16900205612182617,1510,1510,93.75019836425781,-0.006565932650119066
5027142.825,634014873,217.74,103148077,0.02846335619688034,-0.16693592071533203,1510,1510,93.70468139648438,-0.006681324448436499
5027242.825,634014874,217.75,103148081,0.030836429446935654,-0.1599845588207245,1510,1510,93.62953186035156,-0.007041478529572487
5027342.825,634014874,217.75,103148081,0.029932772740721703,-0.1624000072479248,1510,1510,93.60018920898438,-0.006570250727236271
5027442.825,634014874,217.76,103148082,0.029285890981554985,-0.15905413031578064,1510,1510,93.5528335571289,-0.006249251309782267
5027542.825,634014874,217.76,103148082,0.035040780901908875,-0.1676844358444214,1510,1510,93.5107421875,-0.007205035537481308
5027642.825,634014874,217.76,103148085,0.038986604660749435,-0.16610881686210632,1510,1510,93.47785949707031,-0.007713739760220051
5027742.825,634014874,217.76,103148085,0.038477882742881775,-0.16819989681243896,1510,1510,93.44300842285156,-0.007775469683110714
5027842.825,634014874,217.77,103148088,0.03407146409153938,-0.17002899944782257,1510,1510,93.39576721191406,-0.00797981210052967
5027942.825,634014874,217.77,103148088,0.022689245641231537,-0.1676369607448578,1510,1510,93.37808990478516,-0.008490247651934624
5028042.825,634014874,217.78,103148089,0.016796628013253212,-0.16044937074184418,1510,1510,93.35291290283203,-0.007465898059308529
5028142.825,634014874,217.78,103148089,0.023980431258678436,-0.16776275634765625,1510,1510,93.30690002441406,-0.006362275220453739
5028242.825,634014874,217.78,103148092,0.03239813446998596,-0.1690896600484848,1510,1510,93.29734802246094,-0.006780372001230717
5028342.825,634014874,217.78,103148092,0.0359739288687706,-0.1590581238269806,1510,1510,93.25176239013672,-0.007701437920331955
5028442.825,634014874,217.78,103148095,0.03053601272404194,-0.16239005327224731,1510,1510,93.18052673339844,-0.0077329035848379135
5028542.825,634014874,217.78,103148095,0.027908680960536003,-0.15336990356445312,1510,1510,93.08941650390625,-0.007322445046156645
5028642.825,634014875,217.79,103148096,0.030834177508950233,-0.16678550839424133,1510,1510,93.0623779296875,-0.006573583465069532
5028742.825,634014875,217.79,103148096,0.03351796790957451,-0.16390950977802277,1510,1510,93.06981658935547,-0.006012454628944397
5028842.825,634014875,217.79,103148099,0.03790988773107529,-0.17473134398460388,1510,1510,93.05525207519531,-0.005935044027864933
5028942.825,634014875,217.79,103148099,0.03711085394024849,-0.1673271358013153,1510,1510,93.0420913696289,-0.005943216383457184
5029042.825,634014876,217.79,103148101,0.02558889612555504,-0.1604814976453781,1510,1510,93.00883483886719,-0.006471213884651661
5029142.825,634014876,217.79,103148101,0.02922595851123333,-0.16605359315872192,1510,1510,92.9651107788086,-0.006634396966546774
5029242.825,634014875,217.8,103148103,0.03524463623762131,-0.16610310971736908,1510,1510,92.91917419433594,-0.006542674731463194
5029342.825,634014875,217.8,103148103,0.02470308169722557,-0.16811296343803406,1510,1510,92.87361145019531,-0.00632875133305788
5029442.825,634014876,217.8,103148105,0.023924363777041435,-0.16833697259426117,1510,1510,92.83796691894531,-0.00574946403503418
5029542.825,634014876,217.8,103148105,0.029921557754278183,-0.17013350129127502,1510,1510,92.80284881591797,-0.0043731313198804855
5029642.825,634014876,217.81,103148108,0.03795509785413742,-0.1707058995962143,1510,1510,92.80879211425781,-0.004377833567559719
5029742.825,634014876,217.81,103148108,0.035250354558229446,-0.16379190981388092,1510,1510,92.76538848876953,-0.005031772423535585
5029842.825,634014876,217.82,103148110,0.030450034886598587,-0.1614845097064972,1510,1510,92.7549819946289,-0.005324832163751125
5029942.825,634014876,217.82,103148110,0.026396319270133972,-0.1593436300754547,1510,1510,92.72847747802734,-0.004657939076423645
5030042.825,634014876,217.83,103148112,0.027210723608732224,-0.16793224215507507,1510,1510,92.69658660888672,-0.0037757486570626497
5030142.825,634014876,217.83,103148112,0.03249777853488922,-0.16718706488609314,1510,1510,92.68138122558594,-0.003150389762595296
5030242.825,634014876,217.85,103148114,0.03115793503820896,-0.16917955875396729,1510,1510,92.66279602050781,-0.002763553522527218
5030342.825,634014876,217.85,103148114,0.03823721408843994,-0.17367573082447052,1510,1510,92.66114807128906,-0.003090369049459696
5030442.825,634014876,217.86,103148116,0.0397491417825222,-0.17390814423561096,1510,1510,92.66356658935547,-0.0032235081307590008
5030542.825,634014876,217.86,103148116,0.030943172052502632,-0.17166155576705933,1510,1510,92.63365173339844,-0.0036359690129756927
5030642.825,634014876,217.86,103148118,0.033080995082855225,-0.1618848592042923,1510,1510,92.63491821289062,-0.0038179815746843815
5030742.825,634014876,217.86,103148118,0.022389374673366547,-0.15659786760807037,1510,1510,92.60394287109375,-0.002980124205350876
5030842.825,634014877,217.87,103148120,0.028825875371694565,-0.1521519124507904,1510,1510,92.6017837524414,-0.0021031463984400034
5030942.825,634014877,217.87,103148120,0.024158593267202377,-0.16065733134746552,1510,1510,92.61724090576172,-0.0015531872631981969
5031042.825,634014877,217.88,103148122,0.03388959914445877,-0.1598997712135315,1510,1510,92.61026763916016,-0.0014793092850595713
5031142.825,634014877,217.88,103148122,0.03691069781780243,-0.1673525720834732,1510,1510,92.61181640625,-0.001041174284182489
5031242.825,634014877,217.9,103148124,0.036919526755809784,-0.16827699542045593,1510,1510,92.59571838378906,-0.0010289368219673634
5031342.825,634014877,217.9,103148124,0.033478833734989166,-0.17210136353969574,1510,1510,92.63607025146484,-0.0011012495961040258
5031442.825,634014877,217.9,103148126,0.025048447772860527,-0.1669287383556366,1510,1510,92.66758728027344,-0.0007225414738059044
5031542.825,634014877,217.9,103148126,0.03109472431242466,-0.16761599481105804,1510,1510,92.69007873535156,0.0002301779604749754
5031642.825,634014877,217.91,103148128,0.035648658871650696,-0.16018520295619965,1510,1510,92.69096374511719,0.0010345075279474258
5031742.825,634014877,217.91,103148128,0.03601934388279915,-0.1522483080625534,1510,1510,92.68269348144531,0.0006829462363384664
5031842.825,634014877,217.92,103148130,0.030516257509589195,-0.16746410727500916,1510,1510,92.6715316772461,-0.0003453849349170923
5031942.825,634014877,217.92,103148130,0.03340087831020355,-0.16631364822387695,1510,1510,92.67984771728516,-0.00020391961152199656
5032042.825,634014877,217.92,103148133,0.03349340707063675,-0.17051587998867035,1510,1510,92.68183898925781,0.0005250018439255655
5032142.825,634014877,217.92,103148133,0.0314994752407074,-0.16979771852493286,1510,1510,92.63273620605469,0.0017612905940040946
5032242.825,634014876,217.93,103148134,0.02708018571138382,-0.17033904790878296,1510,1510,92.59795379638672,0.002582930028438568
5032342.825,634014876,217.93,103148134,0.025110550224781036,-0.16676384210586548,1510,1510,92.5979232788086,0.002341343555599451
5032442.825,634014877,217.94,103148136,0.026103248819708824,-0.1633017659187317,1510,1510,92.62174224853516,0.0023466539569199085
5032542.825,634014877,217.94,103148136,0.026658380404114723,-0.1606302559375763,1510,1510,92.64051818847656,0.0026949241291731596
5032642.825,634014876,217.95,103148137,0.03212568908929825,-0.1576383262872696,1510,1510,92.6594467163086,0.00325939804315567
5032742.825,634014876,217.95,103148137,0.030779745429754257,-0.1647481620311737,1510,1510,92.67168426513672,0.0030802851542830467
5032842.825,634014876,217.95,103148137,0.028744451701641083,-0.16252602636814117,1510,1510,92.66979217529297,0.0029774638824164867
5032942.825,634014876,217.97,103148140,0.028636574745178223,-0.16545042395591736,1510,1510,92.70882415771484,0.0042734090238809586
5033042.825,634014877,217.97,103148142,0.04009299725294113,-0.16570240259170532,1510,1510,92.7323989868164,0.0051156310364604
5033142.825,634014877,217.97,103148142,0.039815910160541534,-0.1665624976158142,1510,1510,92.76799011230469,0.0047622318379580975
5033242.825,634014876,217.97,103148144,0.03231304883956909,-0.16329388320446014,1510,1510,92.75416564941406,0.0036689885891973972
5033342.825,634014876,217.97,103148144,0.026217497885227203,-0.16629400849342346,1510,1510,92.77483367919922,0.003652262967079878
5033442.825,634014876,217.99,103148145,0.028918547555804253,-0.16919702291488647,1510,1510,92.82256317138672,0.005382797680795193
5033542.825,634014876,217.99,103148145,0.02508968859910965,-0.1650078296661377,1510,1510,92.87654113769531,0.006434945855289698
5033642.825,634014876,217.99,103148148,0.030775250867009163,-0.16778355836868286,1510,1510,92.92884826660156,0.006456158123910427
5033742.825,634014876,217.99,103148148,0.02788226492702961,-0.16078077256679535,1510,1510,92.95452117919922,0.005974102299660444
5033842.825,634014876,218,103148149,0.026539307087659836,-0.16172681748867035,1510,1510,93.01083374023438,0.0056862784549593925
5033942.825,634014876,218,103148149,0.033833932131528854,-0.15842148661613464,1510,1510,93.08303833007812,0.006107427179813385
5034042.825,634014876,218,103148151,0.03704351931810379,-0.1556764394044876,1510,1510,93.15406799316406,0.00700228288769722
5034142.825,634014876,218,103148151,0.02875077910721302,-0.16456472873687744,1510,1510,93.23603820800781,0.007176505867391825
5034242.825,634014876,218.01,103148153,0.025997789576649666,-0.1680639535188675,1510,1510,93.30360412597656,0.007133179344236851
5034342.825,634014876,218.01,103148153,0.026003554463386536,-0.17070814967155457,1510,1510,93.37106323242188,0.008159054443240166
5034442.825,634014876,218.03,103148154,0.030093787238001823,-0.1628430038690567,1510,1510,93.41874694824219,0.008518383838236332
5034542.825,634014876,218.03,103148154,0.03258713334798813,-0.17440210282802582,1510,1510,93.47985076904297,0.008525622077286243
5034642.825,634014876,218.02,103148156,0.03232409805059433,-0.16979998350143433,1510,1510,93.529541015625,0.007456356193870306
5034742.825,634014876,218.02,103148156,0.029018305242061615,-0.1548793911933899,1510,1510,93.58099365234375,0.007533225696533918
5034842.825,634014876,218.04,103148157,0.03299020230770111,-0.15644903481006622,1510,1510,93.64232635498047,0.008790744468569756
5034942.825,634014876,218.04,103148157,0.029702121391892433,-0.15634682774543762,1510,1510,93.71077728271484,0.010197359137237072
5035042.825,634014876,218.04,103148159,0.03359348326921463,-0.16364623606204987,1510,1510,93.75794982910156,0.010435899719595909
5035142.825,634014876,218.04,103148159,0.031406667083501816,-0.1737525910139084,1510,1510,93.82511901855469,0.00912628322839737
5035242.825,634014876,218.04,103148161,0.02536078542470932,-0.1704804003238678,1510,1510,93.87813568115234,0.008453642949461937
5035342.825,634014876,218.04,103148161,0.028164707124233246,-0.16957682371139526,1510,1510,93.9241943359375,0.009808636270463467
5035442.825,634014876,218.04,103148162,0.03750748187303543,-0.17214614152908325,1510,1510,93.97793579101562,0.011120229959487915
5035542.825,634014876,218.04,103148162,0.03489605709910393,-0.16329586505889893,1510,1510,94.0041732788086,0.010806748643517494
5035642.825,634014877,218.05,103148162,0.034171368926763535,-0.15737074613571167,1510,1510,94.093017578125,0.010768014937639236
5035742.825,634014877,218.05,103148162,0.02179325558245182,-0.15228991210460663,1510,1510,94.1731185913086,0.011008947156369686
5035842.825,634014877,218.05,103148164,0.029004711657762527,-0.15880782902240753,1510,1510,94.22723388671875,0.011552736163139343
5035942.825,634014877,218.05,103148164,0.03164808452129364,-0.16371849179267883,1510,1510,94.29959869384766,0.011532003059983253
5036042.825,634014878,218.06,103148165,0.032433971762657166,-0.17048093676567078,1510,1510,94.3600845336914,0.011569200083613396
5036142.825,634014878,218.06,103148165,0.03513268753886223,-0.17467811703681946,1510,1510,94.4207992553711,0.011631228029727936
5036242.825,634014879,218.06,103148166,0.03294450417160988,-0.17385870218276978,1510,1510,94.494384765625,0.012454353272914886
5036342.825,634014879,218.06,103148166,0.03183547034859657,-0.1748572736978531,1510,1510,94.57709503173828,0.013354136608541012
5036442.825,634014879,218.05,103148167,0.036609090864658356,-0.17513343691825867,1510,1510,94.63316345214844,0.01292976550757885
5036542.825,634014879,218.05,103148167,0.028984230011701584,-0.15469342470169067,1510,1510,94.70893096923828,0.012077352032065392
5036642.825,634014880,218.04,103148169,0.02854311652481556,-0.15540891885757446,1510,1510,94.78721618652344,0.011920085176825523
5036742.825,634014880,218.04,103148169,0.02868090569972992,-0.14990665018558502,1510,1510,94.85391235351562,0.013493870384991169
5036842.825,634014880,218.03,103148171,0.030386965721845627,-0.15106633305549622,1510,1510,94.93550109863281,0.01448027603328228
5036942.825,634014880,218.03,103148171,0.03182206302881241,-0.16879689693450928,1510,1510,95.02458953857422,0.014339860528707504
5037042.825,634014880,218.03,103148172,0.03768423572182655,-0.16889558732509613,1510,1510,95.1211166381836,0.013452435843646526
5037142.825,634014880,218.03,103148172,0.02736063487827778,-0.17457079887390137,1510,1510,95.19673919677734,0.012775932438671589
5037242.825,634014881,218.04,103148173,0.029024384915828705,-0.1689768135547638,1510,1510,95.22523498535156,0.013384012505412102
5037342.825,634014881,218.04,103148173,0.027185708284378052,-0.1709793210029602,1510,1510,95.26152801513672,0.014735240489244461
5037442.825,634014881,218.04,103148176,0.036658041179180145,-0.16338570415973663,1510,1510,95.34561920166016,0.015342016704380512
5037542.825,634014881,218.04,103148176,0.034679800271987915,-0.15450605750083923,1510,1510,95.4187240600586,0.015798412263393402
5037642.825,634014881,218.05,103148176,0.032365959137678146,-0.1539364904165268,1510,1510,95.47496032714844,0.016203057020902634
5037742.825,634014881,218.05,103148176,0.03153455629944801,-0.15297242999076843,1510,1510,95.55436706542969,0.015652835369110107
5037842.825,634014882,218.06,103148178,0.029475444927811623,-0.1612803339958191,1510,1510,95.6626968383789,0.01509204600006342
5037942.825,634014882,218.06,103148178,0.027290623635053635,-0.17035344243049622,1510,1510,95.75354766845703,0.01475671585649252
5038042.825,634014882,218.06,103148180,0.020871810615062714,-0.17309443652629852,1510,1510,95.84681701660156,0.014901731163263321
5038142.825,634014882,218.06,103148180,0.020374644547700882,-0.17556966841220856,1510,1510,95.94058227539062,0.01599358394742012
5038242.825,634014882,218.07,103148181,0.03602462261915207,-0.16877324879169464,1510,1510,96.03704071044922,0.01722770184278488
5038342.825,634014882,218.07,103148181,0.03826986253261566,-0.1699511706829071,1510,1510,96.1407241821289,0.017015207558870316
5038442.825,634014883,218.08,103148183,0.0393860787153244,-0.1677534282207489,1510,1510,96.26153564453125,0.016563914716243744
5038542.825,634014883,218.08,103148183,0.03106159344315529,-0.16497394442558289,1510,1510,96.36128997802734,0.01597139984369278
5038642.825,634014884,218.09,103148185,0.024623151868581772,-0.16192194819450378,1510,1510,96.44955444335938,0.01731893979012966
5038742.825,634014884,218.09,103148185,0.020552858710289,-0.16445179283618927,1510,1510,96.55073547363281,0.018101375550031662
5038842.825,634014884,218.11,103148187,0.02793705277144909,-0.16703903675079346,1510,1510,96.6681137084961,0.018462585285305977
5038942.825,634014884,218.11,103148187,0.037245169281959534,-0.16148148477077484,1510,1510,96.77452087402344,0.017983630299568176
5039042.825,634014885,218.12,103148189,0.03690536320209503,-0.1578987091779709,1510,1510,96.87313842773438,0.01758839562535286
5039142.825,634014885,218.12,103148189,0.03704233840107918,-0.1643555462360382,1510,1510,96.97249603271484,0.017173267900943756
5039242.825,634014886,218.12,103148191,0.03124094568192959,-0.16264702379703522,1510,1510,97.09394836425781,0.01732449233531952
5039342.825,634014886,218.12,103148191,0.029404157772660255,-0.16160894930362701,1510,1510,97.21376037597656,0.018578633666038513
5039442.825,634014886,218.14,103148192,0.027804793789982796,-0.16093216836452484,1510,1510,97.3565902709961,0.019109489396214485
5039542.825,634014886,218.14,103148192,0.03263704106211662,-0.16712656617164612,1510,1510,97.48004150390625,0.019099006429314613
5039642.825,634014886,218.15,103148194,0.035095930099487305,-0.1698259562253952,1510,1510,97.60909271240234,0.01938585378229618
5039742.825,634014886,218.15,103148194,0.029920019209384918,-0.1710084229707718,1510,1510,97.73184967041016,0.019603556022047997
5039842.825,634014887,218.16,103148195,0.03292805328965187,-0.17545540630817413,1510,1510,97.81187438964844,0.019375111907720566
5039942.825,634014887,218.16,103148195,0.024438800290226936,-0.1596626490354538,1510,1510,97.94219207763672,0.01930622197687626
5040042.825,634014887,218.17,103148197,0.029820401221513748,-0.1592128872871399,1510,1510,98.04916381835938,0.019770078361034393
5040142.825,634014887,218.17,103148197,0.038284316658973694,-0.15566715598106384,1510,1510,98.16617584228516,0.0205291286110878
5040242.825,634014888,218.18,103148198,0.032326556742191315,-0.16476860642433167,1510,1510,98.29095458984375,0.020215827971696854
5040342.825,634014888,218.18,103148198,0.03366926312446594,-0.1646069437265396,1510,1510,98.44474792480469,0.020059920847415924
5040442.825,634014888,218.21,103148200,0.03276016190648079,-0.16435006260871887,1510,1510,98.59628295898438,0.019429542124271393
5040542.825,634014888,218.21,103148200,0.021739281713962555,-0.16931848227977753,1510,1510,98.72669982910156,0.02003241330385208
5040642.825,634014889,218.23,103148201,0.022102627903223038,-0.16809338331222534,1510,1510,98.87158966064453,0.02067667990922928
5040742.825,634014889,218.23,103148201,0.02937680296599865,-0.1670399308204651,1510,1510,99.0158462524414,0.021403586491942406
5040842.825,634014890,218.24,103148203,0.0370783805847168,-0.1646110713481903,1510,1510,99.14600372314453,0.021704917773604393
5040942.825,634014890,218.24,103148203,0.035119086503982544,-0.1687842458486557,1510,1510,99.27301788330078,0.021253392100334167
5041042.825,634014890,218.26,103148203,0.045028071850538254,-0.16462598741054535,1510,1510,99.43275451660156,0.021085433661937714
5041142.825,634014890,218.26,103148203,0.035537611693143845,-0.16388066112995148,1510,1510,99.58615112304688,0.020894581452012062
5041242.825,634014891,218.28,103148205,0.03530566394329071,-0.16782119870185852,1510,1510,99.7284927368164,0.021078012883663177
5041342.825,634014891,218.28,103148205,0.02833736315369606,-0.16117450594902039,1510,1510,99.8734359741211,0.021288461983203888
5041442.825,634014892,218.31,103148206,0.022827023640275,-0.16511714458465576,1510,1510,99.99333190917969,0.021837521344423294
5041542.825,634014892,218.31,103148206,0.029221033677458763,-0.16602922976016998,1510,1510,100.13864135742188,0.022052114829421043
5041642.825,634014893,218.32,103148207,0.031663134694099426,-0.1614346206188202,1510,1510,100.27344512939453,0.02178892493247986
5041742.825,634014893,218.32,103148207,0.03281114995479584,-0.16776429116725922,1510,1510,100.41593933105469,0.021837269887328148
5041842.825,634014894,218.35,103148208,0.03280479460954666,-0.16973000764846802,1510,1510,100.54071807861328,0.0218812208622694
5041942.825,634014894,218.35,103148208,0.037156715989112854,-0.1703808754682541,1510,1510,100.69205474853516,0.02184966579079628
5042042.825,634014895,218.36,103148209,0.032531674951314926,-0.15735000371932983,1510,1510,100.83492279052734,0.022085584700107574
5042142.825,634014895,218.36,103148209,0.035098396241664886,-0.16044266521930695,1510,1510,100.97532653808594,0.02258809097111225
5042242.825,634014896,218.38,103148210,0.024599943310022354,-0.16221635043621063,1510,1510,101.10616302490234,0.022315001115202904
5042342.825,634014896,218.38,103148210,0.03392656892538071,-0.15868830680847168,1510,1510,101.219482421875,0.022121921181678772
5042442.825,634014896,218.39,103148211,0.033278688788414,-0.1627495288848877,1510,1510,101.3253402709961,0.02219461463391781
5042542.825,634014896,218.39,103148211,0.031158383935689926,-0.172279492020607,1510,1510,101.43343353271484,0.022329766303300858
5042642.825,634014897,218.4,103148213,0.02384832128882408,-0.1634593904018402,1510,1510,101.56224060058594,0.02252357453107834
5042742.825,634014897,218.4,103148213,0.031422678381204605,-0.16353952884674072,1510,1510,101.73404693603516,0.0231325700879097
5042842.825,634014898,218.41,103148214,0.03766312450170517,-0.1704130321741104,1510,1510,101.88157653808594,0.0232011117041111
5042942.825,634014898,218.41,103148214,0.0318501815199852,-0.1641281694173813,1510,1510,102.0533447265625,0.022972557693719864
5043042.825,634014899,218.43,103148216,0.035023219883441925,-0.1577947586774826,1510,1510,102.19828796386719,0.022436153143644333
5043142.825,634014899,218.43,103148216,0.03175387531518936,-0.1636829972267151,1510,1510,102.35313415527344,0.022667545825242996
5043242.825,634014899,218.45,103148217,0.03177846968173981,-0.16336601972579956,1510,1510,102.50147247314453,0.023167693987488747
5043342.825,634014899,218.45,103148217,0.03224370256066322,-0.17026174068450928,1510,1510,102.64315795898438,0.02296001836657524
5043442.825,634014900,218.47,103148218,0.030431263148784637,-0.1708059161901474,1510,1510,102.7740249633789,0.02294333465397358
5043542.825,634014900,218.47,103148218,0.03307769075036049,-0.17191071808338165,1510,1510,102.8835220336914,0.022912506014108658
5043642.825,634014900,218.47,103148220,0.025089431554079056,-0.17020145058631897,1510,1510,102.99201202392578,0.022797653451561928
5043742.825,634014900,218.47,103148220,0.02469216100871563,-0.1635504513978958,1510,1510,103.13778686523438,0.023264091461896896
5043842.825,634014900,218.45,103148224,0.030083399266004562,-0.15933345258235931,1510,1510,103.28299713134766,0.02286568656563759
5043942.825,634014900,218.45,103148224,0.02986980229616165,-0.1573714315891266,1510,1510,103.39319610595703,0.02282349020242691
5044042.825,634014901,218.47,103148225,0.03060515783727169,-0.15036994218826294,1510,1510,103.53152465820312,0.022947467863559723
5044142.825,634014901,218.47,103148225,0.03211654722690582,-0.1644006073474884,1510,1510,103.67799377441406,0.022900665178894997
5044242.825,634014901,218.48,103148225,0.03663621097803116,-0.1665029525756836,1510,1510,103.80909729003906,0.022854214534163475
5044342.825,634014901,218.48,103148225,0.02862410619854927,-0.17228460311889648,1510,1510,103.94285583496094,0.022541247308254242
5044442.825,634014902,218.48,103148227,0.03419606387615204,-0.1751752495765686,1510,1510,104.07774353027344,0.02290910854935646
5044542.825,634014902,218.48,103148227,0.025212688371539116,-0.17210319638252258,1510,1510,104.2208480834961,0.022823279723525047
5044642.825,634014903,218.5,103148229,0.03590310737490654,-0.16594555974006653,1510,1510,104.36834716796875,0.022839989513158798
5044742.825,634014903,218.5,103148229,0.03992878645658493,-0.16382095217704773,1510,1510,104.47831726074219,0.02263791672885418
5044842.825,634014903,218.5,103148230,0.041534069925546646,-0.1617109328508377,1510,1510,104.62366485595703,0.022188721224665642
5044942.825,634014903,218.5,103148230,0.027964027598500252,-0.16108810901641846,1510,1510,104.76715850830078,0.022287718951702118
5045042.825,634014904,218.52,103148230,0.029067642986774445,-0.16663682460784912,1510,1510,104.90918731689453,0.02269039675593376
5045142.825,634014904,218.52,103148230,0.02970297634601593,-0.1772163212299347,1510,1510,105.03390502929688,0.023264827206730843
5045242.825,634014905,218.52,103148231,0.03472747653722763,-0.162722647190094,1510,1510,105.17379760742188,0.023425646126270294
5045342.825,634014905,218.52,103148231,0.031110502779483795,-0.16448216140270233,1510,1510,105.30146026611328,0.02275770902633667
5045442.825,634014905,218.52,103148233,0.03156091645359993,-0.16069073975086212,1510,1510,105.44918823242188,0.021611619740724564
5045542.825,634014905,218.52,103148233,0.02545846812427044,-0.16152971982955933,1510,1510,105.60578918457031,0.021502595394849777
5045642.825,634014906,218.53,103148234,0.025575000792741776,-0.1695367991924286,1510,1510,105.76658630371094,0.02156064100563526
5045742.825,634014906,218.53,103148234,0.03218240663409233,-0.16974252462387085,1510,1510,105.9186782836914,0.02165473811328411
5045842.825,634014906,218.54,103148236,0.02863103710114956,-0.17633968591690063,1510,1510,106.09169006347656,0.02209334447979927
5045942.825,634014906,218.54,103148236,0.03172378987073898,-0.1693270057439804,1510,1510,106.26982116699219,0.022096212953329086
5046042.825,634014907,218.54,103148237,0.03689265251159668,-0.16393108665943146,1510,1510,106.4366455078125,0.022005131468176842
5046142.825,634014907,218.54,103148237,0.0355316624045372,-0.16308483481407166,1510,1510,106.5928726196289,0.021988406777381897
5046242.825,634014908,218.55,103148238,0.03509903699159622,-0.15769729018211365,1510,1510,106.7392349243164,0.02162875048816204
5046342.825,634014908,218.55,103148238,0.03454138711094856,-0.15491198003292084,1510,1510,106.910888671875,0.020983444526791573
5046442.825,634014908,218.56,103148238,0.027713824063539505,-0.1537005603313446,1510,1510,107.07093811035156,0.02092752605676651
5046542.825,634014908,218.56,103148238,0.028554778546094894,-0.16711339354515076,1510,1510,107.21591186523438,0.020901303738355637
5046642.825,634014910,218.58,103148238,0.027654021978378296,-0.17601163685321808,1510,1510,107.33330535888672,0.0207402054220438
5046742.825,634014910,218.58,103148238,0.02452029101550579,-0.1716718226671219,1510,1510,107.47871398925781,0.02078874781727791
5046842.825,634014910,218.59,103148239,0.031672898679971695,-0.17287978529930115,1510,1510,107.63716888427734,0.02070736326277256
5046942.825,634014910,218.59,103148239,0.03219768777489662,-0.16785630583763123,1510,1510,107.78601837158203,0.02098267152905464
5047042.825,634014911,218.6,103148239,0.03150545805692673,-0.16488654911518097,1510,1510,107.91313934326172,0.021209020167589188
5047142.825,634014911,218.6,103148239,0.03452682122588158,-0.15595263242721558,1510,1510,108.03583526611328,0.02091817930340767
5047242.825,634014912,218.62,103148240,0.03611178696155548,-0.14961779117584229,1510,1510,108.14070129394531,0.020330309867858887
5047342.825,634014912,218.62,103148240,0.02367561310529709,-0.16736237704753876,1510,1510,108.24765014648438,0.01965257152915001
5047442.825,634014912,218.62,103148240,0.02191060222685337,-0.16518838703632355,1510,1510,108.3488540649414,0.019614260643720627
5047542.825,634014912,218.62,103148240,0.030921125784516335,-0.17233425378799438,1510,1510,108.43060302734375,0.019910480827093124
5047642.825,634014913,218.63,103148242,0.034968726336956024,-0.1657278835773468,1510,1510,108.54129791259766,0.020288102328777313
5047742.825,634014913,218.63,103148242,0.03828051686286926,-0.16786453127861023,1510,1510,108.67454528808594,0.019541604444384575
5047842.825,634014913,218.64,103148243,0.03204052150249481,-0.16597382724285126,1510,1510,108.7925796508789,0.019105400890111923
5047942.825,634014913,218.64,103148243,0.03287774696946144,-0.15811112523078918,1510,1510,108.9234848022461,0.019378021359443665
5048042.825,634014914,218.64,103148244,0.03157271072268486,-0.16035190224647522,1510,1510,109.05960845947266,0.019442908465862274
5048142.825,634014914,218.64,103148244,0.02693096175789833,-0.16110554337501526,1510,1510,109.2260513305664,0.01949453167617321
5048242.825,634014914,218.65,103148244,0.02359228953719139,-0.16446331143379211,1510,1510,109.36041259765625,0.019106179475784302
5048342.825,634014914,218.65,103148244,0.03072449378669262,-0.16776564717292786,1374,1293,109.46695709228516,0.018930671736598015
5048442.825,634014914,218.65,103148246,0.2734931707382202,-0.22308874130249023,1257,1105,109.4619369506836,0.008118895813822746
5048542.825,634014914,218.65,103148246,0.01556549035012722,-0.1478838473558426,1510,1510,109.3712387084961,-0.01782781444489956
5048642.825,634014915,218.65,103148248,-0.004864994902163744,-0.21244601905345917,1510,1510,109.30785369873047,-0.01273234561085701
5048742.825,634014915,218.65,103148248,0.0642167329788208,-0.16919907927513123,1510,1510,109.29742431640625,-0.005772543605417013
5048842.825,634014915,218.66,103148249,0.03449279069900513,-0.1375792920589447,1510,1510,109.26468658447266,-0.007065651938319206
5048942.825,634014915,218.66,103148249,0.1028614416718483,-0.1892293393611908,1510,1510,109.19788360595703,-0.012483925558626652
5049042.825,634014916,218.66,103148251,0.19578027725219727,-0.18369293212890625,1510,1510,108.97599029541016,-0.03391385078430176
5049142.825,634014916,218.66,103148251,0.026202742010354996,-0.14717131853103638,1510,1510,108.73568725585938,-0.04691927134990692
5049242.825,634014916,218.66,103148253,0.014757300727069378,-0.1843717247247696,1510,1510,108.56706237792969,-0.03732046112418175
5049342.825,634014916,218.66,103148253,0.050733763724565506,-0.17563360929489136,1510,1510,108.43585968017578,-0.03079346753656864
5049442.825,634014917,218.67,103148256,0.03706015646457672,-0.15343710780143738,1510,1510,108.25340270996094,-0.0301942378282547
5049542.825,634014917,218.67,103148256,0.04007824510335922,-0.1810246855020523,1510,1510,108.06912231445312,-0.0344579853117466
5049642.825,634014917,218.67,103148258,0.024060040712356567,-0.16775068640708923,1510,1510,107.86555480957031,-0.039948947727680206
5049742.825,634014917,218.67,103148258,0.11437782645225525,-0.16305497288703918,1254,1100,107.63056945800781,-0.04309424012899399
5049842.825,634014917,218.67,103148260,0.06328143179416656,-0.1728397011756897,1510,1510,107.27236938476562,-0.06556436419487
5049942.825,634014917,218.67,103148260,0.0378803089261055,-0.16534098982810974,1510,1510,106.96131896972656,-0.06512255221605301
5050042.825,634014917,218.67,103148262,0.02983468770980835,-0.14984898269176483,1510,1510,106.714599609375,-0.04929196089506149
5050142.825,634014917,218.67,103148262,0.08635586500167847,-0.1809791624546051,1510,1510,106.46858978271484,-0.044942814856767654
5050242.825,634014918,218.67,103148266,0.05128497630357742,-0.17473027110099792,1510,1510,106.17399597167969,-0.05317327752709389
5050342.825,634014918,218.67,103148266,0.03837703913450241,-0.17172259092330933,1510,1510,105.78748321533203,-0.06494531035423279
5050442.825,634014918,218.68,103148269,-0.011653180234134197,-0.16865189373493195,1510,1510,105.39479064941406,-0.06866145133972168
5050542.825,634014918,218.68,103148269,-0.014980411157011986,-0.16200657188892365,1510,1510,105.06571197509766,-0.06212012469768524
5050642.825,634014918,218.68,103148270,-0.003679783083498478,-0.155238538980484,1510,1510,104.77535247802734,-0.05187345668673515
5050742.825,634014918,218.68,103148270,0.04198329895734787,-0.1665615439414978,1510,1510,104.56249237060547,-0.04473983496427536
5050842.825,634014918,218.69,103148273,0.0559709407389164,-0.16235411167144775,1510,1510,104.31026458740234,-0.04415702074766159
5050942.825,634014918,218.69,103148273,0.16132409870624542,-0.22637248039245605,1510,1510,103.98027038574219,-0.05006082355976105
5051042.825,634014919,218.7,103148276,-0.10523395240306854,-0.2461884617805481,1510,1510,103.59172821044922,-0.07146461308002472
5051142.825,634014919,218.7,103148276,0.06943187117576599,-0.1973029375076294,1510,1510,103.2145767211914,-0.07119075953960419
5051242.825,634014920,218.71,103148279,-0.06032326817512512,-0.12796586751937866,1510,1510,102.85710906982422,-0.06508130580186844
5051342.825,634014920,218.71,103148279,0.0580555684864521,-0.21942247450351715,1510,1510,102.536865234375,-0.05926113948225975
5051442.825,634014920,218.72,103148281,-0.014074614271521568,-0.11574994027614594,1510,1510,102.2385482788086,-0.05377894639968872
5051542.825,634014920,218.72,103148281,0.11241749674081802,-0.12930625677108765,1510,1510,101.93843078613281,-0.05265595763921738
5051642.825,634014920,218.73,103148284,0.010794023983180523,-0.1939847320318222,1510,1510,101.59872436523438,-0.05729746073484421
5051742.825,634014920,218.73,103148284,0.31509774923324585,-0.19675838947296143,1254,1100,101.22377014160156,-0.06294546276330948
5051842.825,634014920,218.75,103148287,0.08281061798334122,-0.15777575969696045,1510,1510,100.6789321899414,-0.08688424527645111
5051942.825,634014920,218.75,103148287,0.026900844648480415,-0.19307556748390198,1510,1510,100.24565124511719,-0.08625143766403198
