timestamp(ms),GPS.Lat,GPS.Alt,GPS.Lng,IMU.AccX,IMU.AccY,RCOU.C1,RCOU.C3,DCM.Yaw,IMU.GyrZ
2979363.748,634015633,218.85,103152754,0.019638201221823692,-0.15717951953411102,1510,1510,55.908775329589844,-0.005887584760785103
2979463.748,634015633,218.86,103152755,0.019823048263788223,-0.1584574431180954,1510,1510,55.88197326660156,-0.005295069422572851
2979563.748,634015633,218.86,103152755,0.03184036538004875,-0.16432297229766846,1510,1510,55.83302307128906,-0.004815832711756229
2979663.748,634015633,218.86,103152754,0.02735445834696293,-0.17095838487148285,1510,1510,55.78605651855469,-0.005247322842478752
2979763.748,634015633,218.86,103152754,0.03022082895040512,-0.16784259676933289,1510,1510,55.72771453857422,-0.0055093830451369286
2979863.748,634015632,218.86,103152753,0.026589563116431236,-0.16590091586112976,1510,1510,55.70701217651367,-0.005192641168832779
2979963.748,634015632,218.86,103152753,0.03190120682120323,-0.16670814156532288,1510,1510,55.70256805419922,-0.0053734006360173225
2980063.748,634015632,218.86,103152754,0.033728018403053284,-0.16231544315814972,1510,1510,55.68431091308594,-0.005909468047320843
2980163.748,634015632,218.86,103152754,0.026001987978816032,-0.16505376994609833,1510,1510,55.63422393798828,-0.005967619828879833
2980263.748,634015632,218.86,103152754,0.019762376323342323,-0.16780364513397217,1510,1510,55.58427047729492,-0.005367504898458719
2980363.748,634015632,218.86,103152754,0.024214712902903557,-0.16599532961845398,1510,1510,55.547908782958984,-0.004277283325791359
2980463.748,634015632,218.86,103152754,0.031664520502090454,-0.16869698464870453,1510,1510,55.51897048950195,-0.004661951679736376
2980563.748,634015632,218.86,103152754,0.027645977213978767,-0.1673072725534439,1510,1510,55.4731330871582,-0.005986331962049007
2980663.748,634015632,218.86,103152754,0.028774624690413475,-0.17047643661499023,1510,1510,55.39958190917969,-0.006656155455857515
2980763.748,634015632,218.86,103152754,0.023240147158503532,-0.1653003990650177,1510,1510,55.36515808105469,-0.006254739128053188
2980863.748,634015631,218.86,103152754,0.02669721655547619,-0.16532912850379944,1510,1510,55.29788589477539,-0.004896150901913643
2980963.748,634015631,218.86,103152754,0.036875613033771515,-0.15726172924041748,1510,1510,55.262149810791016,-0.004268126096576452
2981063.748,634015632,218.86,103152754,0.030922263860702515,-0.16987024247646332,1510,1510,55.21928405761719,-0.0054651787504553795
2981163.748,634015632,218.86,103152754,0.029316842555999756,-0.1719205230474472,1510,1510,55.20905303955078,-0.006150177679955959
2981263.748,634015631,218.86,103152753,0.027706380933523178,-0.16569235920906067,1510,1510,55.177879333496094,-0.006290939636528492
2981363.748,634015631,218.86,103152753,0.02767793834209442,-0.16092297434806824,1510,1510,55.1488151550293,-0.005901065189391375
2981463.748,634015631,218.85,103152753,0.021856315433979034,-0.16027864813804626,1510,1510,55.11592102050781,-0.0052728960290551186
2981563.748,634015631,218.85,103152753,0.028577197343111038,-0.16248856484889984,1510,1510,55.10450744628906,-0.005833371542394161
2981663.748,634015631,218.86,103152753,0.028285877779126167,-0.16106534004211426,1510,1510,55.080841064453125,-0.00582679221406579
2981763.748,634015631,218.86,103152753,0.033775683492422104,-0.16597335040569305,1510,1510,55.03047561645508,-0.005385826341807842
2981863.748,634015631,218.85,103152753,0.028631970286369324,-0.16185075044631958,1510,1510,55.00534439086914,-0.00499224616214633
2981963.748,634015631,218.85,103152753,0.0371195524930954,-0.16906873881816864,1510,1510,54.97013854980469,-0.005636171437799931
2982063.748,634015631,218.85,103152753,0.029124941676855087,-0.17176800966262817,1510,1510,54.947200775146484,-0.006609694100916386
2982163.748,634015631,218.85,103152753,0.02469014935195446,-0.16266968846321106,1510,1510,54.955806732177734,-0.006235748995095491
2982263.748,634015631,218.85,103152753,0.024983450770378113,-0.16596868634223938,1510,1510,54.921058654785156,-0.00537444930523634
2982363.748,634015631,218.85,103152753,0.02987806871533394,-0.16889943182468414,1510,1510,54.87545394897461,-0.005240058060735464
2982463.748,634015630,218.85,103152753,0.030963266268372536,-0.16211268305778503,1510,1510,54.833492279052734,-0.005643029697239399
2982563.748,634015630,218.85,103152753,0.031647153198719025,-0.16756366193294525,1510,1510,54.79177474975586,-0.006036913022398949
2982663.748,634015630,218.85,103152753,0.029112519696354866,-0.16449692845344543,1510,1510,54.743507385253906,-0.006073144264519215
2982763.748,634015630,218.85,103152753,0.026583442464470863,-0.1595933735370636,1510,1510,54.722476959228516,-0.005648188758641481
2982863.748,634015631,218.84,103152753,0.02965134009718895,-0.1705159842967987,1510,1510,54.688087463378906,-0.0059894900768995285
2982963.748,634015631,218.84,103152753,0.026890970766544342,-0.1682707965373993,1510,1510,54.63549041748047,-0.006060118321329355
2983063.748,634015631,218.85,103152754,0.02415316365659237,-0.17192095518112183,1510,1510,54.61414337158203,-0.005930442828685045
2983163.748,634015631,218.85,103152754,0.02583405189216137,-0.16832852363586426,1510,1510,54.556480407714844,-0.005440264940261841
2983263.748,634015631,218.85,103152754,0.03537618741393089,-0.16455262899398804,1510,1510,54.48647689819336,-0.005726230796426535
2983363.748,634015631,218.85,103152754,0.031203493475914,-0.1740400195121765,1510,1510,54.43060302734375,-0.0062764170579612255
2983463.748,634015631,218.84,103152755,0.028049394488334656,-0.16759051382541656,1510,1510,54.38429641723633,-0.006722814403474331
2983563.748,634015631,218.84,103152755,0.021870575845241547,-0.1628074049949646,1510,1510,54.333187103271484,-0.006542469374835491
2983663.748,634015631,218.84,103152755,0.02739991992712021,-0.15960928797721863,1510,1510,54.29217529296875,-0.0056379702873528
2983763.748,634015631,218.84,103152755,0.03216280788183212,-0.15863166749477386,1510,1510,54.24748992919922,-0.0049162921495735645
2983863.748,634015631,218.85,103152755,0.03524110093712807,-0.16405382752418518,1510,1510,54.18048095703125,-0.0055847251787781715
2983963.748,634015631,218.85,103152755,0.03301679342985153,-0.1635804921388626,1510,1510,54.15071105957031,-0.006720992270857096
2984063.748,634015632,218.85,103152756,0.0211317278444767,-0.1622074395418167,1510,1510,54.112152099609375,-0.00693964958190918
2984163.748,634015632,218.85,103152756,0.01687433198094368,-0.1601545214653015,1510,1510,54.09150314331055,-0.006285292096436024
2984263.748,634015632,218.85,103152756,0.025223536416888237,-0.1671072393655777,1510,1510,54.0379524230957,-0.005857366137206554
2984363.748,634015632,218.85,103152756,0.03204827010631561,-0.16401007771492004,1510,1510,54.016117095947266,-0.005596057511866093
2984463.748,634015632,218.85,103152756,0.03524843975901604,-0.1679888516664505,1510,1510,53.980384826660156,-0.006122084800153971
2984563.748,634015632,218.85,103152756,0.03216738998889923,-0.15905889868736267,1510,1510,53.95062255859375,-0.006902636028826237
2984663.748,634015633,218.86,103152756,0.022651568055152893,-0.1585976481437683,1510,1510,53.935943603515625,-0.006965479347854853
2984763.748,634015633,218.86,103152756,0.023380253463983536,-0.16931048035621643,1510,1510,53.90565490722656,-0.006476162001490593
2984863.748,634015632,218.86,103152756,0.029039140790700912,-0.16005933284759521,1510,1510,53.85075759887695,-0.00592116080224514
2984963.748,634015632,218.86,103152756,0.036721598356962204,-0.16905829310417175,1510,1510,53.807472229003906,-0.00647464906796813
2985063.748,634015633,218.86,103152757,0.027440465986728668,-0.16406084597110748,1510,1510,53.777042388916016,-0.00698923459276557
2985163.748,634015633,218.86,103152757,0.027454115450382233,-0.1657171994447708,1510,1510,53.72889709472656,-0.006058379542082548
2985263.748,634015633,218.86,103152757,0.029475517570972443,-0.1622401773929596,1510,1510,53.69218444824219,-0.0059259384870529175
2985363.748,634015633,218.86,103152757,0.028879130259156227,-0.17200784385204315,1510,1510,53.648101806640625,-0.00660235621035099
2985463.748,634015633,218.85,103152757,0.03179575502872467,-0.1657532900571823,1510,1510,53.632877349853516,-0.007191232405602932
2985563.748,634015633,218.85,103152757,0.029536988586187363,-0.16495385766029358,1510,1510,53.61454772949219,-0.006437669973820448
2985663.748,634015633,218.86,103152757,0.02941863238811493,-0.16246064007282257,1510,1510,53.552127838134766,-0.006280283443629742
2985763.748,634015633,218.86,103152757,0.0319252647459507,-0.16378140449523926,1510,1510,53.522342681884766,-0.006173201836645603
2985863.748,634015634,218.85,103152757,0.037804700434207916,-0.1587640792131424,1510,1510,53.50041198730469,-0.006486743688583374
2985963.748,634015634,218.85,103152757,0.027376815676689148,-0.15977853536605835,1510,1510,53.47910690307617,-0.006920599844306707
2986063.748,634015634,218.86,103152758,0.024463407695293427,-0.1645577847957611,1510,1510,53.43944549560547,-0.006584014277905226
2986163.748,634015634,218.86,103152758,0.03295336663722992,-0.1681385487318039,1510,1510,53.394386291503906,-0.006446496117860079
2986263.748,634015634,218.85,103152759,0.03213551267981529,-0.17510592937469482,1510,1510,53.33031463623047,-0.006599305663257837
2986363.748,634015634,218.85,103152759,0.025989525020122528,-0.16270610690116882,1510,1510,53.277488708496094,-0.007074328605085611
2986463.748,634015634,218.85,103152758,0.020832432433962822,-0.1676160991191864,1510,1510,53.222373962402344,-0.007007104344666004
2986563.748,634015634,218.85,103152758,0.029866859316825867,-0.16726161539554596,1510,1510,53.18944549560547,-0.0062697650864720345
2986663.748,634015635,218.86,103152759,0.029729148373007774,-0.16780665516853333,1510,1510,53.16260528564453,-0.0060877371579408646
2986763.748,634015635,218.86,103152759,0.03692830353975296,-0.1641339510679245,1510,1510,53.10625457763672,-0.0067717647179961205
2986863.748,634015635,218.85,103152759,0.03258852660655975,-0.16280120611190796,1510,1510,53.06687545776367,-0.007531523704528809
2986963.748,634015635,218.85,103152759,0.03349793702363968,-0.16762737929821014,1510,1510,53.01046371459961,-0.007276407442986965
2987063.748,634015635,218.85,103152759,0.031138136982917786,-0.16959244012832642,1510,1510,52.972679138183594,-0.006672225426882505
2987163.748,634015635,218.85,103152759,0.030345331877470016,-0.1671086847782135,1510,1510,52.95647430419922,-0.00613762903958559
2987263.748,634015635,218.85,103152759,0.025639740750193596,-0.16821613907814026,1510,1510,52.96683120727539,-0.006623441353440285
2987363.748,634015635,218.85,103152759,0.032673947513103485,-0.15566566586494446,1510,1510,52.92581558227539,-0.006872383877635002
2987463.748,634015635,218.85,103152760,0.03128224238753319,-0.16316062211990356,1510,1510,52.89661407470703,-0.0068975165486335754
2987563.748,634015635,218.85,103152760,0.031632792204618454,-0.1662691831588745,1510,1510,52.85850143432617,-0.007292706519365311
2987663.748,634015636,218.85,103152760,0.02043691650032997,-0.1630779206752777,1510,1510,52.829322814941406,-0.007512966636568308
2987763.748,634015636,218.85,103152760,0.023470137268304825,-0.15894585847854614,1510,1510,52.77996063232422,-0.007142715156078339
2987863.748,634015636,218.84,103152760,0.03278456628322601,-0.17184560000896454,1510,1510,52.73114776611328,-0.006270254962146282
2987963.748,634015636,218.84,103152760,0.03601885586977005,-0.17679741978645325,1510,1510,52.68471145629883,-0.006644857581704855
2988063.748,634015636,218.85,103152760,0.025609459728002548,-0.16285820305347443,1510,1510,52.64225769042969,-0.007423051167279482
2988163.748,634015636,218.85,103152760,0.02232230082154274,-0.16019827127456665,1510,1510,52.58943176269531,-0.008151966147124767
2988263.748,634015636,218.84,103152760,0.019810443744063377,-0.16187870502471924,1510,1510,52.54824447631836,-0.007938465103507042
2988363.748,634015636,218.84,103152760,0.02889333665370941,-0.16835862398147583,1510,1510,52.539276123046875,-0.0066161807626485825
2988463.748,634015636,218.83,103152759,0.032513607293367386,-0.17232270538806915,1510,1510,52.50589370727539,-0.006253271829336882
2988563.748,634015636,218.83,103152759,0.033284373581409454,-0.16747529804706573,1510,1510,52.44915008544922,-0.006709114648401737
2988663.748,634015636,218.84,103152760,0.0294476430863142,-0.16872353851795197,1510,1510,52.39733123779297,-0.007314412854611874
2988763.748,634015636,218.84,103152760,0.030674505978822708,-0.16388487815856934,1510,1510,52.337066650390625,-0.007764366455376148
2988863.748,634015636,218.83,103152759,0.01893286220729351,-0.16011942923069,1510,1510,52.260616302490234,-0.007660356350243092
2988963.748,634015636,218.83,103152759,0.027996059507131577,-0.16003163158893585,1510,1510,52.213069915771484,-0.006604829803109169
2989063.748,634015636,218.82,103152759,0.022755112498998642,-0.1621183305978775,1510,1510,52.18730926513672,-0.006253683008253574
2989163.748,634015636,218.82,103152759,0.04140644520521164,-0.1692315638065338,1510,1510,52.16035461425781,-0.00724453292787075
2989263.748,634015636,218.82,103152759,0.023651648312807083,-0.16706347465515137,1510,1510,52.12497329711914,-0.008135703392326832
2989363.748,634015636,218.82,103152759,0.022377319633960724,-0.16569510102272034,1510,1510,52.093013763427734,-0.007889997214078903
2989463.748,634015636,218.82,103152759,0.02339297905564308,-0.16461366415023804,1510,1510,52.0633544921875,-0.007380617782473564
2989563.748,634015636,218.82,103152759,0.024497972801327705,-0.16837555170059204,1510,1510,51.99861526489258,-0.006738424301147461
2989663.748,634015636,218.82,103152759,0.03445729613304138,-0.16543830931186676,1510,1510,51.92587661743164,-0.00716783944517374
2989763.748,634015636,218.82,103152759,0.025444820523262024,-0.16221480071544647,1510,1510,51.874568939208984,-0.007905816659331322
2989863.748,634015636,218.81,103152759,0.021156426519155502,-0.15815550088882446,1510,1510,51.81109619140625,-0.008009274490177631
2989963.748,634015636,218.81,103152759,0.026030221953988075,-0.15611863136291504,1510,1510,51.781009674072266,-0.007077761925756931
2990063.748,634015636,218.81,103152759,0.03515225276350975,-0.16477423906326294,1510,1510,51.740882873535156,-0.0067634787410497665
2990163.748,634015636,218.81,103152759,0.032033056020736694,-0.17252209782600403,1510,1510,51.69287872314453,-0.00754952896386385
2990263.748,634015636,218.8,103152758,0.03351470082998276,-0.16917160153388977,1510,1510,51.62534713745117,-0.008226408623158932
2990363.748,634015636,218.8,103152758,0.019175495952367783,-0.16715627908706665,1510,1510,51.589962005615234,-0.008696526288986206
2990463.748,634015636,218.79,103152758,0.02122277207672596,-0.16422128677368164,1510,1510,51.56450271606445,-0.007978754118084908
2990563.748,634015636,218.79,103152758,0.028728708624839783,-0.16774410009384155,1510,1510,51.51845932006836,-0.006794833578169346
2990663.748,634015637,218.79,103152758,0.03185092657804489,-0.16878674924373627,1510,1510,51.46590805053711,-0.006783014163374901
2990763.748,634015637,218.79,103152758,0.03200418874621391,-0.15944446623325348,1510,1510,51.424949645996094,-0.008268549107015133
2990863.748,634015637,218.78,103152757,0.035681117326021194,-0.16811063885688782,1510,1510,51.36634063720703,-0.008198918774724007
2990963.748,634015637,218.78,103152757,0.023698976263403893,-0.1722032129764557,1510,1510,51.33212661743164,-0.007991673424839973
2991063.748,634015637,218.78,103152757,0.028870314359664917,-0.1701408326625824,1510,1510,51.28881072998047,-0.00753082986921072
2991163.748,634015637,218.78,103152757,0.027608390897512436,-0.165633425116539,1510,1510,51.24996566772461,-0.007826164364814758
2991263.748,634015638,218.77,103152757,0.025286365300416946,-0.16216206550598145,1510,1510,51.202293395996094,-0.007571225054562092
2991363.748,634015638,218.77,103152757,0.03265344351530075,-0.16724619269371033,1510,1510,51.15462112426758,-0.0073998672887682915
2991463.748,634015638,218.77,103152757,0.028224553912878036,-0.17065827548503876,1510,1510,51.138587951660156,-0.007721607573330402
2991563.748,634015638,218.77,103152757,0.03240758925676346,-0.16309545934200287,1510,1510,51.08659362792969,-0.007951587438583374
2991663.748,634015638,218.76,103152756,0.030110280960798264,-0.16248315572738647,1510,1510,51.030616760253906,-0.00827103666961193
2991763.748,634015638,218.76,103152756,0.02657807245850563,-0.16907784342765808,1510,1510,50.961238861083984,-0.008123729377985
2991863.748,634015638,218.76,103152757,0.02472834475338459,-0.1661161631345749,1510,1510,50.89531326293945,-0.008043079636991024
2991963.748,634015638,218.76,103152757,0.02936902828514576,-0.1637575626373291,1510,1510,50.84280014038086,-0.007383203133940697
2992063.748,634015638,218.75,103152756,0.03561009094119072,-0.16242799162864685,1510,1510,50.814510345458984,-0.00807164330035448
2992163.748,634015638,218.75,103152756,0.025437528267502785,-0.1636015772819519,1510,1510,50.76496505737305,-0.008275795727968216
2992263.748,634015639,218.75,103152757,0.028993096202611923,-0.1647196263074875,1510,1510,50.72947311401367,-0.008045373484492302
2992363.748,634015639,218.75,103152757,0.030681325122714043,-0.1671595573425293,1510,1510,50.67540740966797,-0.007686929777264595
2992463.748,634015639,218.75,103152757,0.03692576289176941,-0.16146501898765564,1510,1510,50.63234329223633,-0.008072617463767529
2992563.748,634015639,218.75,103152757,0.02782805636525154,-0.16767893731594086,1510,1510,50.591941833496094,-0.008232925087213516
2992663.748,634015640,218.74,103152758,0.02646728977560997,-0.1670026183128357,1510,1510,50.5484619140625,-0.008237193338572979
2992763.748,634015640,218.74,103152758,0.02578955888748169,-0.16530337929725647,1510,1510,50.49713897705078,-0.007708541117608547
2992863.748,634015640,218.74,103152757,0.035133324563503265,-0.15962663292884827,1510,1510,50.453914642333984,-0.007795323617756367
2992963.748,634015640,218.74,103152757,0.03133653849363327,-0.16653481125831604,1510,1510,50.41899871826172,-0.008427266031503677
2993063.748,634015640,218.74,103152757,0.03393977880477905,-0.1663079708814621,1510,1510,50.389068603515625,-0.008707080036401749
2993163.748,634015640,218.74,103152757,0.03008490428328514,-0.17548170685768127,1510,1510,50.34110641479492,-0.008823265321552753
2993263.748,634015641,218.74,103152757,0.02560100331902504,-0.17037968337535858,1510,1510,50.28250503540039,-0.00806241575628519
2993363.748,634015641,218.74,103152757,0.023104002699255943,-0.1648344248533249,1510,1510,50.25905990600586,-0.007850135676562786
2993463.748,634015641,218.74,103152757,0.03208581730723381,-0.16511528193950653,1510,1510,50.17451858520508,-0.00796186737716198
2993563.748,634015641,218.74,103152757,0.033242300152778625,-0.16471149027347565,1510,1510,50.118324279785156,-0.007992568425834179
2993663.748,634015642,218.73,103152757,0.037059344351291656,-0.16433404386043549,1510,1510,50.05693054199219,-0.007768621202558279
2993763.748,634015642,218.73,103152757,0.03721313178539276,-0.16898256540298462,1510,1510,50.01768493652344,-0.00840392429381609
2993863.748,634015642,218.73,103152758,0.024058939889073372,-0.1716732680797577,1510,1510,49.95934295654297,-0.008636397309601307
2993963.748,634015642,218.73,103152758,0.024119175970554352,-0.1638731062412262,1510,1510,49.927059173583984,-0.008646583184599876
2994063.748,634015642,218.73,103152757,0.018598657101392746,-0.16416627168655396,1510,1510,49.9127311706543,-0.008211554028093815
2994163.748,634015642,218.73,103152757,0.027055539190769196,-0.1656016856431961,1510,1510,49.90437698364258,-0.007812411058694124
2994263.748,634015643,218.73,103152758,0.028057843446731567,-0.16497619450092316,1510,1510,49.88718032836914,-0.00785939209163189
2994363.748,634015643,218.73,103152758,0.030700240284204483,-0.16744661331176758,1510,1510,49.841495513916016,-0.008951759897172451
2994463.748,634015643,218.72,103152758,0.03045322746038437,-0.16289204359054565,1510,1510,49.77799987792969,-0.009056365117430687
2994563.748,634015643,218.72,103152758,0.031038843095302582,-0.15838129818439484,1510,1510,49.741424560546875,-0.009176313877105713
2994663.748,634015643,218.72,103152758,0.02522488310933113,-0.16862496733665466,1510,1510,49.692806243896484,-0.008135189302265644
2994763.748,634015643,218.72,103152758,0.03427552804350853,-0.17140787839889526,1510,1510,49.64500045776367,-0.007813604548573494
2994863.748,634015643,218.71,103152758,0.02663329988718033,-0.17145037651062012,1510,1510,49.61751174926758,-0.008031218312680721
2994963.748,634015643,218.71,103152758,0.03663324564695358,-0.1620958000421524,1510,1510,49.59065628051758,-0.008678820915520191
2995063.748,634015644,218.72,103152758,0.03220481425523758,-0.16010943055152893,1510,1510,49.54957962036133,-0.00908686313778162
2995163.748,634015644,218.72,103152758,0.02767401561141014,-0.15744486451148987,1510,1510,49.486915588378906,-0.009163839742541313
2995263.748,634015644,218.71,103152757,0.03035702556371689,-0.15970708429813385,1510,1510,49.43430709838867,-0.008492924273014069
2995363.748,634015644,218.71,103152757,0.026660209521651268,-0.16501384973526,1510,1510,49.37837600708008,-0.008269964717328548
2995463.748,634015645,218.71,103152757,0.030698291957378387,-0.16845251619815826,1510,1510,49.31827926635742,-0.008423958905041218
2995563.748,634015645,218.71,103152757,0.031136292964220047,-0.16840922832489014,1510,1510,49.25709533691406,-0.008633056655526161
2995663.748,634015645,218.72,103152758,0.029859915375709534,-0.17032568156719208,1510,1510,49.206275939941406,-0.009020170196890831
2995763.748,634015645,218.72,103152758,0.02409079670906067,-0.1671115756034851,1510,1510,49.14781951904297,-0.009025479666888714
2995863.748,634015645,218.71,103152757,0.029472878202795982,-0.15999461710453033,1510,1510,49.12888717651367,-0.008736930787563324
2995963.748,634015645,218.71,103152757,0.02727460116147995,-0.15809136629104614,1510,1510,49.08723831176758,-0.008378054946660995
2996063.748,634015645,218.7,103152757,0.027106020599603653,-0.16372403502464294,1510,1510,49.01340103149414,-0.00868740864098072
2996163.748,634015645,218.7,103152757,0.03414459526538849,-0.16464799642562866,1510,1510,48.96845626831055,-0.008811955340206623
2996263.748,634015646,218.7,103152757,0.035758934915065765,-0.16439324617385864,1510,1510,48.90913009643555,-0.008812927640974522
2996363.748,634015646,218.7,103152757,0.03134053573012352,-0.16711172461509705,1510,1510,48.85669708251953,-0.008917613886296749
2996463.748,634015646,218.7,103152757,0.031836725771427155,-0.16414959728717804,1510,1510,48.827552795410156,-0.008817151188850403
2996563.748,634015646,218.7,103152757,0.028886545449495316,-0.17066122591495514,1510,1510,48.80522537231445,-0.00877444352954626
2996663.748,634015646,218.69,103152757,0.02607862651348114,-0.1640702784061432,1510,1510,48.751094818115234,-0.00886616762727499
2996763.748,634015646,218.69,103152757,0.02382250875234604,-0.16273638606071472,1510,1510,48.7413444519043,-0.008555196225643158
2996863.748,634015646,218.7,103152756,0.021705012768507004,-0.1644863486289978,1510,1510,48.685237884521484,-0.00820896402001381
2996963.748,634015646,218.7,103152756,0.034153591841459274,-0.16072621941566467,1510,1510,48.64917755126953,-0.008412168361246586
2997063.748,634015646,218.69,103152757,0.03480472043156624,-0.16600127518177032,1510,1510,48.60638427734375,-0.009249432012438774
2997163.748,634015646,218.69,103152757,0.030312247574329376,-0.16337350010871887,1510,1510,48.56181716918945,-0.009324820712208748
2997263.748,634015646,218.69,103152756,0.034392569214105606,-0.16653648018836975,1510,1510,48.50819396972656,-0.009079420007765293
2997363.748,634015646,218.69,103152756,0.033758796751499176,-0.16937750577926636,1510,1510,48.464359283447266,-0.00846519973129034
2997463.748,634015646,218.69,103152756,0.033620864152908325,-0.16872569918632507,1510,1510,48.44233322143555,-0.008965156972408295
2997563.748,634015646,218.69,103152756,0.017584266141057014,-0.16270148754119873,1510,1510,48.41887664794922,-0.008858885616064072
2997663.748,634015647,218.68,103152756,0.018972525373101234,-0.15735334157943726,1510,1510,48.373313903808594,-0.008680260740220547
2997763.748,634015647,218.68,103152756,0.028906185179948807,-0.16276422142982483,1510,1510,48.30231475830078,-0.008617223240435123
2997863.748,634015647,218.68,103152755,0.03750612586736679,-0.1663498878479004,1510,1510,48.221988677978516,-0.009173094294965267
2997963.748,634015647,218.68,103152755,0.03015948459506035,-0.16789832711219788,1510,1510,48.19171142578125,-0.009372502565383911
2998063.748,634015647,218.67,103152754,0.029337450861930847,-0.16634425520896912,1510,1510,48.16305160522461,-0.008936089463531971
2998163.748,634015647,218.67,103152754,0.03272658586502075,-0.16820603609085083,1510,1510,48.14506149291992,-0.008731325156986713
2998263.748,634015646,218.67,103152755,0.027456922456622124,-0.16814738512039185,1510,1510,48.128700256347656,-0.008672933094203472
2998363.748,634015646,218.67,103152755,0.028094448149204254,-0.16408324241638184,1510,1510,48.07723617553711,-0.009025909006595612
2998463.748,634015646,218.67,103152755,0.02509916201233864,-0.16122812032699585,1510,1510,48.019676208496094,-0.009147335775196552
2998563.748,634015646,218.67,103152755,0.021394379436969757,-0.16581808030605316,1510,1510,47.97499465942383,-0.009118830785155296
2998663.748,634015646,218.67,103152754,0.02517095021903515,-0.16340124607086182,1510,1510,47.94161605834961,-0.009218492545187473
2998763.748,634015646,218.67,103152754,0.025800246745347977,-0.1664944291114807,1510,1510,47.90484619140625,-0.009131956845521927
2998863.748,634015646,218.67,103152754,0.029402852058410645,-0.1635223925113678,1510,1510,47.863189697265625,-0.008742631413042545
2998963.748,634015646,218.67,103152754,0.0375569686293602,-0.17572565376758575,1510,1510,47.81299591064453,-0.008477116003632545
2999063.748,634015646,218.65,103152753,0.0351484939455986,-0.17207065224647522,1510,1510,47.74686050415039,-0.008949941955506802
2999163.748,634015646,218.65,103152753,0.026926573365926743,-0.16605229675769806,1510,1510,47.693572998046875,-0.009511825628578663
2999263.748,634015646,218.65,103152753,0.02644643373787403,-0.16297435760498047,1510,1510,47.67219161987305,-0.009914794936776161
2999363.748,634015646,218.65,103152753,0.024021215736865997,-0.16261963546276093,1510,1510,47.63166427612305,-0.009265306405723095
2999463.748,634015645,218.64,103152752,0.03083127550780773,-0.16369208693504333,1510,1510,47.58168029785156,-0.008430236019194126
2999563.748,634015645,218.64,103152752,0.028843050822615623,-0.16441352665424347,1510,1510,47.52983474731445,-0.008307348936796188
2999663.748,634015645,218.64,103152753,0.03176405653357506,-0.16914145648479462,1510,1510,47.49405288696289,-0.009386841207742691
2999763.748,634015645,218.64,103152753,0.03049389272928238,-0.1683591902256012,1510,1510,47.44585037231445,-0.009861916303634644
2999863.748,634015645,218.63,103152751,0.024036971852183342,-0.16654397547245026,1510,1510,47.392127990722656,-0.009738339111208916
2999963.748,634015645,218.63,103152751,0.022238783538341522,-0.17051704227924347,1510,1510,47.35423278808594,-0.008719825185835361
3000063.748,634015645,218.63,103152752,0.028827525675296783,-0.16563229262828827,1510,1510,47.33669662475586,-0.008384735323488712
3000163.748,634015645,218.63,103152752,0.03730649873614311,-0.16918224096298218,1510,1510,47.29459762573242,-0.008958028629422188
3000263.748,634015645,218.62,103152750,0.028644979000091553,-0.16352081298828125,1510,1510,47.24766159057617,-0.009691535495221615
3000363.748,634015645,218.62,103152750,0.030273692682385445,-0.16581234335899353,1510,1510,47.20919418334961,-0.009281758219003677
3000463.748,634015644,218.61,103152750,0.03588016703724861,-0.1663099080324173,1510,1510,47.15684127807617,-0.009256980381906033
3000563.748,634015644,218.61,103152750,0.026399951428174973,-0.16604624688625336,1510,1510,47.10969924926758,-0.009365038014948368
3000663.748,634015644,218.61,103152750,0.026403678581118584,-0.17178122699260712,1510,1510,47.06282424926758,-0.00983814150094986
3000763.748,634015644,218.61,103152750,0.027929561212658882,-0.17548799514770508,1510,1510,47.011077880859375,-0.009749384596943855
3000863.748,634015644,218.6,103152750,0.023035850375890732,-0.15723726153373718,1516,1504,46.97116470336914,-0.009251411072909832
3000963.748,634015644,218.6,103152750,0.025051333010196686,-0.15989243984222412,1516,1504,46.9123420715332,-0.009045762941241264
3001063.748,634015644,218.6,103152750,0.031448543071746826,-0.1599317193031311,1522,1497,46.85541915893555,-0.009173102676868439
3001163.748,634015644,218.6,103152750,0.035541143268346786,-0.16958296298980713,1522,1497,46.79377746582031,-0.009562347084283829
3001263.748,634015644,218.61,103152750,0.03601193055510521,-0.16972127556800842,1522,1497,46.733890533447266,-0.009782067500054836
3001363.748,634015644,218.61,103152750,0.028612591326236725,-0.1614643782377243,1522,1497,46.666324615478516,-0.009695746004581451
3001463.748,634015644,218.61,103152750,0.025715118274092674,-0.17632929980754852,1522,1497,46.60558319091797,-0.009484540671110153
3001563.748,634015644,218.61,103152750,0.022593863308429718,-0.15804614126682281,1522,1497,46.5560302734375,-0.009003398939967155
3001663.748,634015644,218.61,103152750,0.026144802570343018,-0.15280291438102722,1528,1491,46.497413635253906,-0.009301888756453991
3001763.748,634015644,218.61,103152750,0.026244139298796654,-0.16926313936710358,1528,1491,46.43586349487305,-0.009319278411567211
3001863.748,634015644,218.61,103152750,0.001044605509378016,-0.16230852901935577,1522,1497,46.38656997680664,-0.010228032246232033
3001963.748,634015644,218.61,103152750,-0.0020332951098680496,-0.17033353447914124,1522,1497,46.3179817199707,-0.011322781443595886
3002063.748,634015644,218.62,103152750,-0.000947182415984571,-0.15847745537757874,1516,1504,46.27213668823242,-0.01122951228171587
3002163.748,634015644,218.62,103152750,0.018587198108434677,-0.15674413740634918,1516,1504,46.23046875,-0.010095164179801941
3002263.748,634015645,218.61,103152750,0.03522368147969246,-0.17402037978172302,1516,1504,46.1601448059082,-0.009942787699401379
3002363.748,634015645,218.61,103152750,0.04645529389381409,-0.1639176309108734,1516,1504,46.10005569458008,-0.010490150190889835
3002463.748,634015644,218.63,103152749,0.04433800280094147,-0.15811769664287567,1516,1504,46.04642868041992,-0.010804543271660805
3002563.748,634015644,218.63,103152749,0.036456577479839325,-0.1736370027065277,1516,1504,45.98761749267578,-0.010986766777932644
3002663.748,634015645,218.63,103152749,0.028250806033611298,-0.1594700962305069,1516,1504,45.92884826660156,-0.010901463218033314
3002763.748,634015645,218.63,103152749,0.034035418182611465,-0.16154539585113525,1516,1504,45.8426399230957,-0.010354699566960335
3002863.748,634015644,218.63,103152750,0.020866453647613525,-0.1744268238544464,1516,1504,45.76832580566406,-0.009712041355669498
3002963.748,634015644,218.63,103152750,0.026038506999611855,-0.16597741842269897,1516,1504,45.705745697021484,-0.010083029977977276
3003063.748,634015645,218.64,103152750,0.03269292414188385,-0.16299957036972046,1516,1504,45.61701965332031,-0.010523637756705284
3003163.748,634015645,218.64,103152750,0.02878648042678833,-0.16727931797504425,1516,1504,45.53071594238281,-0.011168285273015499
3003263.748,634015644,218.63,103152749,0.028751539066433907,-0.1616862565279007,1547,1471,45.47840881347656,-0.010853481478989124
3003363.748,634015644,218.63,103152749,-0.03916386514902115,-0.15839916467666626,1553,1465,45.446693420410156,-0.00957297533750534
3003463.748,634015644,218.64,103152750,-0.08502240478992462,-0.17165730893611908,1553,1465,45.39460372924805,-0.007918843999505043
3003563.748,634015644,218.64,103152750,-0.11821766197681427,-0.1573045253753662,1584,1432,45.33753967285156,-0.011165710166096687
3003663.748,634015645,218.63,103152748,-0.1937541961669922,-0.16914206743240356,1709,1301,45.25434494018555,-0.012242631986737251
3003763.748,634015645,218.63,103152748,-1.265454888343811,-0.1668117344379425,1834,1169,45.155540466308594,-0.013258937746286392
3003863.748,634015641,218.63,103152739,-2.6548497676849365,-0.18383903801441193,1900,1100,44.96493911743164,-0.016072696074843407
3003963.748,634015641,218.63,103152739,-3.682994842529297,-0.12499237060546875,1900,1100,44.71025466918945,-0.024888422340154648
3004063.748,634015632,218.63,103152712,-3.668088436126709,-0.0881045013666153,1900,1100,44.485198974609375,-0.029151862487196922
3004163.748,634015632,218.63,103152712,-3.0332813262939453,-0.11117473244667053,1900,1100,44.39631271362305,-0.019813528284430504
3004263.748,634015617,218.63,103152672,-2.7172155380249023,-0.1392151415348053,1900,1100,44.45078659057617,0.01284743007272482
3004363.748,634015617,218.63,103152672,-2.2266738414764404,-0.15309706330299377,1900,1100,44.53046417236328,0.03859613090753555
3004463.748,634015598,218.61,103152623,-2.077420234680176,-0.14665961265563965,1900,1100,44.56028747558594,0.047100260853767395
3004563.748,634015598,218.61,103152623,-1.8519984483718872,-0.26056888699531555,1900,1100,44.55022430419922,0.040107931941747665
3004663.748,634015577,218.61,103152567,-2.0736963748931885,-0.213544562458992,1900,1100,44.55009460449219,0.03398586064577103
3004763.748,634015577,218.61,103152567,-1.9425185918807983,-0.2504490911960602,1900,1100,44.54534149169922,0.03480280563235283
3004863.748,634015554,218.61,103152504,-1.8775243759155273,-0.22214366495609283,1900,1100,44.572357177734375,0.03765639662742615
3004963.748,634015554,218.61,103152504,-1.668430209159851,-0.2812138795852661,1900,1100,44.55849075317383,0.03564850240945816
3005063.748,634015531,218.59,103152439,-1.6839169263839722,-0.2061498463153839,1900,1100,44.528018951416016,0.03182924538850784
3005163.748,634015531,218.59,103152439,-1.622910737991333,-0.20209088921546936,1900,1100,44.49338150024414,0.02981865033507347
3005263.748,634015506,218.59,103152370,-1.632738709449768,-0.2017301619052887,1900,1100,44.44844436645508,0.028308413922786713
3005363.748,634015506,218.59,103152370,-1.6188230514526367,-0.2093176543712616,1900,1100,44.44011688232422,0.028383880853652954
3005463.748,634015481,218.59,103152300,-1.5939886569976807,-0.22436846792697906,1900,1100,44.44515609741211,0.029526812955737114
3005563.748,634015481,218.59,103152300,-1.5806643962860107,-0.22909079492092133,1900,1100,44.47977066040039,0.03317631036043167
3005663.748,634015457,218.58,103152228,-1.5491493940353394,-0.2844153642654419,1900,1100,44.48761749267578,0.03518786281347275
3005763.748,634015457,218.58,103152228,-1.55623459815979,-0.2468298226594925,1900,1100,44.52201461791992,0.035205498337745667
3005863.748,634015432,218.58,103152154,-1.5519211292266846,-0.2557718753814697,1900,1100,44.586734771728516,0.03601566329598427
3005963.748,634015432,218.58,103152154,-1.5875718593597412,-0.26663869619369507,1900,1100,44.61937713623047,0.03751064091920853
3006063.748,634015406,218.57,103152079,-1.505680799484253,-0.24217024445533752,1900,1100,44.648616790771484,0.036042001098394394
3006163.748,634015406,218.57,103152079,-1.5527410507202148,-0.23911768198013306,1900,1100,44.642086029052734,0.034078460186719894
3006263.748,634015382,218.58,103152005,-1.5245076417922974,-0.2843373417854309,1900,1100,44.68727493286133,0.035035282373428345
3006363.748,634015382,218.58,103152005,-1.5306673049926758,-0.23153464496135712,1900,1100,44.725528717041016,0.03834884986281395
3006463.748,634015357,218.57,103151929,-1.4820222854614258,-0.28312671184539795,1900,1100,44.8167724609375,0.03930625319480896
3006563.748,634015357,218.57,103151929,-1.5408225059509277,-0.2720247507095337,1900,1100,44.897972106933594,0.04003790020942688
3006663.748,634015332,218.57,103151852,-1.4940568208694458,-0.2639385461807251,1900,1100,44.961761474609375,0.04051952064037323
3006763.748,634015332,218.57,103151852,-1.4902338981628418,-0.23526668548583984,1900,1100,45.03666305541992,0.04012720286846161
3006863.748,634015308,218.56,103151775,-1.4898039102554321,-0.2624466121196747,1900,1100,45.09355545043945,0.03820871561765671
3006963.748,634015308,218.56,103151775,-1.5019062757492065,-0.2618071436882019,1900,1100,45.162742614746094,0.03613483905792236
3007063.748,634015285,218.56,103151698,-1.4408420324325562,-0.2264779955148697,1900,1100,45.254974365234375,0.03474670648574829
3007163.748,634015285,218.56,103151698,-1.4717239141464233,-0.21212847530841827,1900,1100,45.34199905395508,0.03490625321865082
3007263.748,634015261,218.56,103151620,-1.460688829421997,-0.3010043501853943,1900,1100,45.43638610839844,0.03581532463431358
3007363.748,634015261,218.56,103151620,-1.524695873260498,-0.2366773635149002,1900,1100,45.49605178833008,0.03705192729830742
3007463.748,634015237,218.56,103151543,-1.4763214588165283,-0.24328573048114777,1900,1100,45.58301544189453,0.03717032074928284
3007563.748,634015237,218.56,103151543,-1.476326584815979,-0.27475547790527344,1900,1100,45.68993377685547,0.03955509141087532
3007663.748,634015214,218.56,103151464,-1.484655737876892,-0.2785176932811737,1900,1100,45.81175231933594,0.04043680801987648
3007763.748,634015214,218.56,103151464,-1.483125925064087,-0.23838910460472107,1900,1100,45.90366744995117,0.04096723347902298
3007863.748,634015192,218.56,103151384,-1.4581420421600342,-0.26937100291252136,1900,1100,45.96035385131836,0.038776472210884094
3007963.748,634015192,218.56,103151384,-1.4938229322433472,-0.21760110557079315,1900,1100,46.07231140136719,0.036542050540447235
3008063.748,634015169,218.57,103151306,-1.4321775436401367,-0.19556021690368652,1900,1100,46.15351486206055,0.03520112484693527
3008163.748,634015169,218.57,103151306,-1.4931105375289917,-0.25100016593933105,1900,1100,46.24089050292969,0.035706210881471634
3008263.748,634015147,218.57,103151227,-1.4853472709655762,-0.28016677498817444,1900,1100,46.33507537841797,0.03669704869389534
3008363.748,634015147,218.57,103151227,-1.4567532539367676,-0.20058457553386688,1900,1100,46.41238784790039,0.03610791265964508
3008463.748,634015126,218.57,103151147,-1.4091893434524536,-0.2308475822210312,1900,1100,46.495723724365234,0.035805195569992065
3008563.748,634015126,218.57,103151147,-1.4495214223861694,-0.22185619175434113,1900,1100,46.5890007019043,0.03320491313934326
3008663.748,634015104,218.57,103151067,-1.4619451761245728,-0.2043752372264862,1900,1100,46.662864685058594,0.0295854564756155
3008763.748,634015104,218.57,103151067,-1.4328287839889526,-0.1673375964164734,1900,1100,46.73774719238281,0.02836705558001995
3008863.748,634015083,218.58,103150987,-1.4793307781219482,-0.2234242707490921,1900,1100,46.845821380615234,0.029697494581341743
3008963.748,634015083,218.58,103150987,-1.488665223121643,-0.23737415671348572,1900,1100,46.97069549560547,0.03442880138754845
3009063.748,634015062,218.58,103150907,-1.4501643180847168,-0.22689184546470642,1900,1100,47.09330749511719,0.03657527640461922
3009163.748,634015062,218.58,103150907,-1.4806305170059204,-0.24196593463420868,1900,1100,47.23516082763672,0.0363311804831028
3009263.748,634015041,218.58,103150826,-1.4414963722229004,-0.2947552800178528,1900,1100,47.356380462646484,0.037120044231414795
3009363.748,634015041,218.58,103150826,-1.48529052734375,-0.22623953223228455,1900,1100,47.51951599121094,0.03791673853993416
3009463.748,634015021,218.58,103150746,-1.4227521419525146,-0.295333594083786,1900,1100,47.67995834350586,0.03898255527019501
3009563.748,634015021,218.58,103150746,-1.4656343460083008,-0.26114416122436523,1822,1182,47.81517028808594,0.0381116159260273
3009663.748,634015000,218.58,103150665,-1.1303355693817139,-0.2651100158691406,1697,1314,47.93490219116211,0.03637349233031273
3009763.748,634015000,218.58,103150665,-0.2123110592365265,-0.21837835013866425,1572,1445,48.18254470825195,0.03347192704677582
3009863.748,634014982,218.57,103150591,0.80909264087677,-0.28246280550956726,1510,1510,48.483726501464844,0.03330308198928833
3009963.748,634014982,218.57,103150591,1.2536585330963135,-0.2276332676410675,1510,1510,48.78478240966797,0.03401453047990799
3010063.748,634014968,218.59,103150533,1.6428143978118896,-0.2029937505722046,1510,1510,49.066349029541016,0.03396768495440483
3010163.748,634014968,218.59,103150533,1.8350400924682617,-0.234096959233284,1510,1510,49.322357177734375,0.033299148082733154
3010263.748,634014956,218.6,103150486,1.7009962797164917,-0.20192661881446838,1510,1510,49.559600830078125,0.031115476042032242
3010363.748,634014956,218.6,103150486,1.262238621711731,-0.22000820934772491,1510,1510,49.79043197631836,0.025433752685785294
3010463.748,634014948,218.6,103150448,0.7421225309371948,-0.18375548720359802,1510,1510,50.03435516357422,0.0215167049318552
3010563.748,634014948,218.6,103150448,0.4646293520927429,-0.20942291617393494,1510,1510,50.29197692871094,0.01779722422361374
3010663.748,634014939,218.6,103150413,0.37179824709892273,-0.19441385567188263,1510,1510,50.53542709350586,0.015825947746634483
3010763.748,634014939,218.6,103150413,0.4838651716709137,-0.1803095042705536,1510,1510,50.77699661254883,0.0157436765730381
3010863.748,634014932,218.61,103150380,0.6626555919647217,-0.20083126425743103,1510,1510,51.00635528564453,0.017786871641874313
3010963.748,634014932,218.61,103150380,0.787436842918396,-0.16493436694145203,1510,1510,51.26813888549805,0.021005932241678238
3011063.748,634014926,218.62,103150352,0.767737865447998,-0.182644784450531,1510,1510,51.53886032104492,0.024617033079266548
3011163.748,634014926,218.62,103150352,0.6473390460014343,-0.19384755194187164,1510,1510,51.841766357421875,0.025997692719101906
3011263.748,634014919,218.64,103150323,0.507773756980896,-0.19680723547935486,1510,1510,52.107032775878906,0.027453962713479996
3011363.748,634014919,218.64,103150323,0.43345287442207336,-0.1753430813550949,1510,1510,52.38979721069336,0.026951733976602554
3011463.748,634014912,218.64,103150295,0.4147615134716034,-0.1873418241739273,1510,1510,52.700523376464844,0.025962619110941887
3011563.748,634014912,218.64,103150295,0.4639124870300293,-0.18244652450084686,1510,1510,52.97899627685547,0.024576615542173386
3011663.748,634014906,218.63,103150267,0.49618467688560486,-0.18455182015895844,1510,1510,53.216400146484375,0.02421887218952179
3011763.748,634014906,218.63,103150267,0.46963295340538025,-0.18288542330265045,1510,1510,53.46229934692383,0.024410024285316467
3011863.748,634014901,218.64,103150242,0.36977678537368774,-0.1728791892528534,1510,1510,53.70710372924805,0.024637088179588318
3011963.748,634014901,218.64,103150242,0.2516999840736389,-0.17822974920272827,1510,1510,53.96974182128906,0.023540351539850235
3012063.748,634014896,218.62,103150217,0.1624651551246643,-0.18245023488998413,1510,1510,54.191471099853516,0.02099118009209633
3012163.748,634014896,218.62,103150217,0.10388438403606415,-0.16069549322128296,1510,1510,54.41001510620117,0.017177747562527657
3012263.748,634014891,218.62,103150196,0.1283653974533081,-0.16188448667526245,1510,1510,54.627994537353516,0.014903560280799866
3012363.748,634014891,218.62,103150196,0.1414608657360077,-0.17326074838638306,1510,1510,54.80879592895508,0.01301830355077982
3012463.748,634014887,218.61,103150176,0.1879013180732727,-0.18176588416099548,1510,1510,54.966793060302734,0.011241702362895012
3012563.748,634014887,218.61,103150176,0.17830021679401398,-0.1780242919921875,1510,1510,55.13678741455078,0.010308417491614819
3012663.748,634014883,218.61,103150158,0.17876189947128296,-0.1902584731578827,1510,1510,55.31386184692383,0.009734825231134892
3012763.748,634014883,218.61,103150158,0.17619729042053223,-0.1809210181236267,1510,1510,55.49307632446289,0.010673917829990387
3012863.748,634014879,218.61,103150140,0.1909608542919159,-0.18119536340236664,1510,1510,55.69637680053711,0.012528856284916401
3012963.748,634014879,218.61,103150140,0.22692546248435974,-0.17757263779640198,1510,1510,55.91111373901367,0.015762336552143097
3013063.748,634014875,218.62,103150121,0.284159779548645,-0.1686936765909195,1510,1510,56.16254425048828,0.019799809902906418
3013163.748,634014875,218.62,103150121,0.3246757388114929,-0.16983307898044586,1510,1510,56.392120361328125,0.02463286556303501
3013263.748,634014871,218.63,103150104,0.3041774034500122,-0.16804265975952148,1510,1510,56.65709686279297,0.027868900448083878
3013363.748,634014871,218.63,103150104,0.24625825881958008,-0.17283229529857635,1510,1510,56.92060089111328,0.029703181236982346
3013463.748,634014868,218.62,103150086,0.15750809013843536,-0.17673833668231964,1510,1510,57.19442367553711,0.03006158210337162
3013563.748,634014868,218.62,103150086,0.06897041201591492,-0.1825760006904602,1510,1510,57.46092987060547,0.027997374534606934
3013663.748,634014864,218.62,103150067,0.006480847485363483,-0.18805265426635742,1510,1510,57.72079086303711,0.025352779775857925
3013763.748,634014864,218.62,103150067,-0.0014889832818880677,-0.1796497404575348,1510,1510,57.938819885253906,0.02169545739889145
3013863.748,634014861,218.61,103150051,0.021942593157291412,-0.17614221572875977,1510,1510,58.11619186401367,0.018311135470867157
3013963.748,634014861,218.61,103150051,0.06934819370508194,-0.17624622583389282,1510,1510,58.28419876098633,0.01597239263355732
3014063.748,634014858,218.6,103150036,0.10410550236701965,-0.17874202132225037,1510,1510,58.47039031982422,0.01518450677394867
3014163.748,634014858,218.6,103150036,0.1247173622250557,-0.17196124792099,1510,1510,58.64309310913086,0.015140251256525517
3014263.748,634014855,218.6,103150022,0.11372148990631104,-0.17489035427570343,1510,1510,58.829044342041016,0.01580039970576763
3014363.748,634014855,218.6,103150022,0.10537877678871155,-0.1710914969444275,1510,1510,59.002010345458984,0.01621204800903797
3014463.748,634014853,218.61,103150009,0.11597498506307602,-0.16745531558990479,1510,1510,59.18223190307617,0.017318999394774437
3014563.748,634014853,218.61,103150009,0.1422402262687683,-0.17550702393054962,1510,1510,59.39320373535156,0.018320884555578232
3014663.748,634014850,218.61,103149995,0.16820433735847473,-0.17191751301288605,1510,1510,59.58124542236328,0.019461113959550858
3014763.748,634014850,218.61,103149995,0.18417543172836304,-0.17784744501113892,1510,1510,59.79970169067383,0.018880080431699753
3014863.748,634014848,218.61,103149981,0.14548425376415253,-0.17656101286411285,1510,1510,59.99156951904297,0.0173591710627079
3014963.748,634014848,218.61,103149981,0.09410247206687927,-0.1860562115907669,1510,1510,60.14645767211914,0.01590472273528576
3015063.748,634014845,218.62,103149967,0.06548922508955002,-0.18458253145217896,1510,1510,60.322566986083984,0.015334898605942726
3015163.748,634014845,218.62,103149967,0.07498827576637268,-0.1809411644935608,1510,1510,60.494354248046875,0.014825204387307167
3015263.748,634014842,218.62,103149953,0.09314784407615662,-0.1787351369857788,1510,1510,60.64890670776367,0.013161798939108849
3015363.748,634014842,218.62,103149953,0.11342751979827881,-0.17101876437664032,1510,1510,60.77540969848633,0.011651215143501759
3015463.748,634014840,218.61,103149939,0.09212787449359894,-0.16160207986831665,1510,1510,60.8878288269043,0.00977399107068777
3015563.748,634014840,218.61,103149939,0.0714300125837326,-0.16679967939853668,1510,1510,61.02700424194336,0.007967437617480755
3015663.748,634014838,218.61,103149927,0.04664251580834389,-0.15293142199516296,1510,1510,61.1504020690918,0.005771716125309467
3015763.748,634014838,218.61,103149927,0.03507862240076065,-0.16066685318946838,1510,1510,61.23188400268555,0.004449059255421162
3015863.748,634014835,218.61,103149915,0.06211894378066063,-0.16065692901611328,1510,1510,61.31348419189453,0.0033850865438580513
3015963.748,634014835,218.61,103149915,0.08487606048583984,-0.16725042462348938,1510,1510,61.39087677001953,0.0036878474056720734
3016063.748,634014833,218.61,103149904,0.09507650882005692,-0.17321524024009705,1510,1510,61.44834518432617,0.0035846049431711435
3016163.748,634014833,218.61,103149904,0.09714722633361816,-0.17114117741584778,1510,1510,61.543033599853516,0.0038776472210884094
3016263.748,634014831,218.62,103149894,0.08175705373287201,-0.16999337077140808,1510,1510,61.63257598876953,0.004685141611844301
3016363.748,634014831,218.62,103149894,0.07206092774868011,-0.17419061064720154,1510,1510,61.74256896972656,0.005970421712845564
3016463.748,634014829,218.62,103149882,0.07650824636220932,-0.17444072663784027,1510,1510,61.86948776245117,0.007360999938100576
3016563.748,634014829,218.62,103149882,0.08805263042449951,-0.17120081186294556,1510,1510,61.982261657714844,0.009353134781122208
3016663.748,634014827,218.63,103149871,0.10612940043210983,-0.1692793071269989,1510,1510,62.109474182128906,0.011217297986149788
3016763.748,634014827,218.63,103149871,0.1168687641620636,-0.17332065105438232,1510,1510,62.217323303222656,0.01249754335731268
3016863.748,634014825,218.63,103149860,0.10357793420553207,-0.17406147718429565,1510,1510,62.36106491088867,0.012591357342898846
3016963.748,634014825,218.63,103149860,0.07380543649196625,-0.16874311864376068,1510,1510,62.51362228393555,0.012087194249033928
3017063.748,634014823,218.63,103149849,0.060417693108320236,-0.16902506351470947,1510,1510,62.62630081176758,0.010726327076554298
3017163.748,634014823,218.63,103149849,0.04155704751610756,-0.16064602136611938,1510,1510,62.71965026855469,0.009358392097055912
3017263.748,634014821,218.63,103149838,0.04471033439040184,-0.16381847858428955,1510,1510,62.796661376953125,0.007512087468057871
3017363.748,634014821,218.63,103149838,0.038970042020082474,-0.16787883639335632,1510,1510,62.870994567871094,0.005301984958350658
3017463.748,634014819,218.63,103149828,0.027070535346865654,-0.15505211055278778,1510,1510,62.945037841796875,0.004471225198358297
3017563.748,634014819,218.63,103149828,0.03624840825796127,-0.15837261080741882,1510,1510,63.00372314453125,0.005019852891564369
3017663.748,634014818,218.64,103149819,0.055274270474910736,-0.15620474517345428,1510,1510,63.08301544189453,0.005450541153550148
3017763.748,634014818,218.64,103149819,0.08136901259422302,-0.16500088572502136,1510,1510,63.15947341918945,0.006017771549522877
3017863.748,634014816,218.64,103149810,0.08913491666316986,-0.16821253299713135,1510,1510,63.238922119140625,0.005533155053853989
3017963.748,634014816,218.64,103149810,0.07945876568555832,-0.17036087810993195,1510,1510,63.33205032348633,0.0064245653338730335
3018063.748,634014814,218.63,103149800,0.07713668048381805,-0.17830172181129456,1510,1510,63.44627380371094,0.0076129501685500145
3018163.748,634014814,218.63,103149800,0.07477179169654846,-0.18325617909431458,1510,1510,63.55958557128906,0.008667410351336002
3018263.748,634014813,218.65,103149791,0.07610436528921127,-0.17524085938930511,1510,1510,63.65188980102539,0.010065927170217037
3018363.748,634014813,218.65,103149791,0.0889740139245987,-0.16906578838825226,1510,1510,63.74484634399414,0.01162219699472189
3018463.748,634014811,218.64,103149782,0.08714598417282104,-0.17501100897789001,1510,1510,63.83671188354492,0.012270037084817886
3018563.748,634014811,218.64,103149782,0.07264488935470581,-0.16948671638965607,1510,1510,63.9576301574707,0.011036201380193233
3018663.748,634014810,218.64,103149772,0.04634321480989456,-0.16921307146549225,1510,1510,64.04092407226562,0.008403617888689041
3018763.748,634014810,218.64,103149772,0.026738956570625305,-0.15956030786037445,1510,1510,64.10712432861328,0.006115538068115711
3018863.748,634014808,218.65,103149763,0.02429773285984993,-0.16330569982528687,1510,1510,64.18399047851562,0.004961051046848297
3018963.748,634014808,218.65,103149763,0.024081945419311523,-0.15926934778690338,1510,1510,64.26604461669922,0.004809958394616842
3019063.748,634014806,218.65,103149754,0.03386726230382919,-0.15921340882778168,1510,1510,64.3228759765625,0.005196135025471449
3019163.748,634014806,218.65,103149754,0.04550782963633537,-0.16984333097934723,1510,1510,64.38541412353516,0.005465581547468901
3019263.748,634014805,218.65,103149746,0.059226565062999725,-0.16640928387641907,1510,1510,64.4640121459961,0.005681905895471573
3019363.748,634014805,218.65,103149746,0.059764884412288666,-0.16436907649040222,1510,1510,64.52923583984375,0.005859218072146177
3019463.748,634014804,218.63,103149738,0.06400374323129654,-0.16340552270412445,1510,1510,64.59598541259766,0.005788648035377264
3019563.748,634014804,218.63,103149738,0.07313426584005356,-0.1677255928516388,1510,1510,64.68417358398438,0.0053703077137470245
3019663.748,634014803,218.64,103149730,0.07250697910785675,-0.17695270478725433,1510,1510,64.76554870605469,0.006905877031385899
3019763.748,634014803,218.64,103149730,0.07461540400981903,-0.17668122053146362,1510,1510,64.85269927978516,0.009131189435720444
3019863.748,634014801,218.64,103149721,0.08590669929981232,-0.17569458484649658,1510,1510,64.921630859375,0.010731370188295841
3019963.748,634014801,218.64,103149721,0.07212302833795547,-0.17527523636817932,1510,1510,64.9737319946289,0.010805738158524036
3020063.748,634014800,218.65,103149713,0.05732215195894241,-0.16997414827346802,1510,1510,65.03713989257812,0.009536324068903923
3020163.748,634014800,218.65,103149713,0.04005812853574753,-0.1694389134645462,1510,1510,65.08810424804688,0.007663995027542114
3020263.748,634014799,218.64,103149704,0.025791935622692108,-0.16201862692832947,1510,1510,65.1567153930664,0.005451762117445469
3020363.748,634014799,218.64,103149704,0.02854529768228531,-0.15737423300743103,1510,1510,65.20416259765625,0.0033519333228468895
3020463.748,634014797,218.64,103149696,0.029217666015028954,-0.15967372059822083,1510,1510,65.26439666748047,0.002244675299152732
3020563.748,634014797,218.64,103149696,0.03834574669599533,-0.15346530079841614,1510,1510,65.28761291503906,0.0019624968990683556
3020663.748,634014796,218.64,103149688,0.0333801805973053,-0.16106726229190826,1510,1510,65.330078125,0.002991902409121394
3020763.748,634014796,218.64,103149688,0.04846877232193947,-0.16435343027114868,1510,1510,65.34551239013672,0.0031133685261011124
3020863.748,634014795,218.65,103149681,0.05921940505504608,-0.1690530627965927,1510,1510,65.39322662353516,0.003118509892374277
3020963.748,634014795,218.65,103149681,0.06936181336641312,-0.17375478148460388,1510,1510,65.42156219482422,0.002869481686502695
3021063.748,634014794,218.66,103149675,0.06251243501901627,-0.1739622801542282,1510,1510,65.46096801757812,0.0032273083925247192
3021163.748,634014794,218.66,103149675,0.06867381930351257,-0.17484775185585022,1510,1510,65.47538757324219,0.004353614524006844
3021263.748,634014793,218.68,103149669,0.061701368540525436,-0.17124444246292114,1510,1510,65.52410125732422,0.0062594935297966
3021363.748,634014793,218.68,103149669,0.06892291456460953,-0.1715129315853119,1510,1510,65.57878875732422,0.007821611128747463
3021463.748,634014791,218.69,103149663,0.06527025252580643,-0.1692984700202942,1510,1510,65.65896606445312,0.008063639514148235
3021563.748,634014791,218.69,103149663,0.05920788645744324,-0.17171522974967957,1510,1510,65.72534942626953,0.0068994248285889626
3021663.748,634014790,218.69,103149656,0.039482250809669495,-0.1623641848564148,1510,1510,65.75812530517578,0.0041572460904717445
3021763.748,634014790,218.69,103149656,0.022404823452234268,-0.1660383939743042,1510,1510,65.7752456665039,0.001451639225706458
3021863.748,634014789,218.69,103149648,0.005185370799154043,-0.15823547542095184,1510,1510,65.83678436279297,0.0007693181396462023
3021963.748,634014789,218.69,103149648,0.009217578917741776,-0.1602783352136612,1510,1510,65.87469482421875,0.0010314608225598931
3022063.748,634014788,218.7,103149641,0.0274217389523983,-0.16164107620716095,1510,1510,65.91108703613281,0.002433157991617918
3022163.748,634014788,218.7,103149641,0.03895074501633644,-0.16269086301326752,1510,1510,65.93619537353516,0.0028468831442296505
3022263.748,634014787,218.7,103149635,0.05064269155263901,-0.1631956398487091,1510,1510,65.97367095947266,0.0024672795552760363
3022363.748,634014787,218.7,103149635,0.06335629522800446,-0.16303186118602753,1510,1510,66.00114440917969,0.002639925107359886
3022463.748,634014786,218.7,103149627,0.06683405488729477,-0.17614319920539856,1510,1510,66.05535125732422,0.00369855435565114
3022563.748,634014786,218.7,103149627,0.08158838748931885,-0.17747393250465393,1510,1510,66.09188842773438,0.004551287740468979
3022663.748,634014785,218.69,103149620,0.07253365218639374,-0.17826397716999054,1510,1510,66.14662170410156,0.005926642566919327
3022763.748,634014785,218.69,103149620,0.062043361365795135,-0.1702231764793396,1510,1510,66.19668579101562,0.006807052064687014
3022863.748,634014784,218.69,103149613,0.04352625086903572,-0.16614070534706116,1510,1510,66.24411010742188,0.007068466395139694
3022963.748,634014784,218.69,103149613,0.024050142616033554,-0.16815420985221863,1510,1510,66.2829360961914,0.005702381022274494
3023063.748,634014784,218.68,103149605,0.01980070024728775,-0.16163446009159088,1510,1510,66.29722595214844,0.0027471822686493397
3023163.748,634014784,218.68,103149605,0.011856110766530037,-0.14987899363040924,1510,1510,66.29231262207031,0.00028643160476349294
3023263.748,634014783,218.68,103149599,0.026128074154257774,-0.16227373480796814,1510,1510,66.27201843261719,-0.001691276440396905
3023363.748,634014783,218.68,103149599,0.02342531457543373,-0.158812016248703,1510,1510,66.28168487548828,-0.0014359300257638097
3023463.748,634014782,218.66,103149592,0.029825663194060326,-0.1634744107723236,1510,1510,66.3026351928711,-0.0003447901690378785
3023563.748,634014782,218.66,103149592,0.039498891681432724,-0.16647914052009583,1510,1510,66.33636474609375,0.000981413759291172
3023663.748,634014781,218.66,103149585,0.051880307495594025,-0.16671627759933472,1510,1510,66.36148834228516,0.0015319227240979671
3023763.748,634014781,218.66,103149585,0.07617634534835815,-0.16940869390964508,1510,1510,66.38151550292969,0.001844954676926136
3023863.748,634014780,218.66,103149578,0.08589467406272888,-0.1758430004119873,1510,1510,66.42930603027344,0.0023025567643344402
3023963.748,634014780,218.66,103149578,0.06536678224802017,-0.17358554899692535,1510,1510,66.48197174072266,0.0033197742886841297
3024063.748,634014779,218.65,103149571,0.050273895263671875,-0.17344823479652405,1510,1510,66.5114974975586,0.0034867413341999054
3024163.748,634014779,218.65,103149571,0.04614074155688286,-0.17209714651107788,1510,1510,66.5251235961914,0.002500463044270873
3024263.748,634014778,218.65,103149564,0.033525362610816956,-0.1662711799144745,1510,1510,66.54558563232422,0.0012636492028832436
3024363.748,634014778,218.65,103149564,0.028750548139214516,-0.15776437520980835,1510,1510,66.5560073852539,0.0004165656282566488
3024463.748,634014777,218.64,103149558,0.015689965337514877,-0.1567128449678421,1510,1510,66.58653259277344,-0.0013687934260815382
3024563.748,634014777,218.64,103149558,0.002095943782478571,-0.1572798490524292,1510,1510,66.56578063964844,-0.0027755466289818287
3024663.748,634014777,218.64,103149551,0.009271497838199139,-0.16246561706066132,1510,1510,66.56329345703125,-0.004667613655328751
3024763.748,634014777,218.64,103149551,0.028726018965244293,-0.15466228127479553,1510,1510,66.58279418945312,-0.004987548571079969
3024863.748,634014776,218.63,103149544,0.05473735183477402,-0.16272510588169098,1510,1510,66.5998764038086,-0.0031857178546488285
3024963.748,634014776,218.63,103149544,0.07952223718166351,-0.1727847158908844,1510,1510,66.63887023925781,-0.0003987932577729225
3025063.748,634014775,218.63,103149538,0.07934200763702393,-0.18394184112548828,1510,1510,66.65856170654297,0.0012403808068484068
3025163.748,634014775,218.63,103149538,0.0778585821390152,-0.17957736551761627,1510,1510,66.68376159667969,0.0017860174411907792
3025263.748,634014774,218.63,103149531,0.05878998711705208,-0.17181958258152008,1510,1510,66.70989227294922,0.0010682318825274706
3025363.748,634014774,218.63,103149531,0.04257304593920708,-0.1603091061115265,1510,1510,66.72245025634766,-0.0002934397489298135
3025463.748,634014773,218.62,103149524,0.021856136620044708,-0.16401338577270508,1510,1510,66.71510314941406,-0.0015077106654644012
3025563.748,634014773,218.62,103149524,0.007646966725587845,-0.15607281029224396,1510,1510,66.69664001464844,-0.002448119455948472
3025663.748,634014772,218.62,103149518,0.003619717201218009,-0.1579601913690567,1510,1510,66.67665100097656,-0.0035888133570551872
3025763.748,634014772,218.62,103149518,0.002706743311136961,-0.15704813599586487,1510,1510,66.66523742675781,-0.0049840910360217094
3025863.748,634014771,218.61,103149511,0.01938103698194027,-0.15871523320674896,1510,1510,66.68997192382812,-0.005446787923574448
3025963.748,634014771,218.61,103149511,0.04117754474282265,-0.15813890099525452,1510,1510,66.677001953125,-0.004755547270178795
3026063.748,634014770,218.61,103149505,0.06496892124414444,-0.17124255001544952,1510,1510,66.65731048583984,-0.003735631238669157
3026163.748,634014770,218.61,103149505,0.0747612714767456,-0.17691367864608765,1510,1510,66.67837524414062,-0.0029085837304592133
3026263.748,634014769,218.61,103149498,0.07482407242059708,-0.17538270354270935,1510,1510,66.68907928466797,-0.002000796841457486
3026363.748,634014769,218.61,103149498,0.06662070751190186,-0.17881257832050323,1510,1510,66.73141479492188,-0.0008983068400993943
3026463.748,634014768,218.61,103149492,0.051090989261865616,-0.16940023005008698,1510,1510,66.75457763671875,0.00026743020862340927
3026563.748,634014768,218.61,103149492,0.0391441285610199,-0.1722828894853592,1510,1510,66.76134490966797,-0.00015194862498901784
3026663.748,634014767,218.6,103149485,0.022114314138889313,-0.15765130519866943,1510,1510,66.7873306274414,-0.0025592404417693615
3026763.748,634014767,218.6,103149485,-0.003812825307250023,-0.15905454754829407,1510,1510,66.7913818359375,-0.004752867855131626
3026863.748,634014766,218.6,103149479,0.008925437927246094,-0.15234410762786865,1510,1510,66.78359985351562,-0.00587938167154789
3026963.748,634014766,218.6,103149479,0.008668450638651848,-0.1543446034193039,1510,1510,66.78621673583984,-0.00604630634188652
3027063.748,634014765,218.6,103149473,0.030133839696645737,-0.15814805030822754,1510,1510,66.763671875,-0.005841134116053581
3027163.748,634014765,218.6,103149473,0.04884526506066322,-0.16596385836601257,1510,1510,66.76382446289062,-0.005429434590041637
3027263.748,634014764,218.6,103149467,0.05428390949964523,-0.1714480221271515,1510,1510,66.74097442626953,-0.004090938251465559
3027363.748,634014764,218.6,103149467,0.06680424511432648,-0.1759198158979416,1510,1510,66.72916412353516,-0.0019175943452864885
3027463.748,634014763,218.6,103149461,0.07065895199775696,-0.1768139898777008,1510,1510,66.7598648071289,-0.0008592881495133042
3027563.748,634014763,218.6,103149461,0.0639519989490509,-0.17472897469997406,1510,1510,66.7898178100586,-0.0008392284507863224
3027663.748,634014762,218.6,103149456,0.047578275203704834,-0.17413240671157837,1510,1510,66.80799865722656,-0.0018160551553592086
3027763.748,634014762,218.6,103149456,0.02731943130493164,-0.16260351240634918,1510,1510,66.8362808227539,-0.002200428629294038
3027863.748,634014761,218.59,103149449,0.0033734783064574003,-0.15536905825138092,1510,1510,66.85371398925781,-0.0025765402242541313
3027963.748,634014761,218.59,103149449,-0.0006737657822668552,-0.1522122025489807,1510,1510,66.88729095458984,-0.002916099037975073
3028063.748,634014760,218.59,103149444,0.009008226916193962,-0.1551138162612915,1510,1510,66.86461639404297,-0.004772785119712353
3028163.748,634014760,218.59,103149444,0.02635030262172222,-0.15617763996124268,1510,1510,66.80955505371094,-0.005874665454030037
3028263.748,634014759,218.59,103149439,0.044452279806137085,-0.16511270403862,1510,1510,66.7430419921875,-0.005640865303575993
3028363.748,634014759,218.59,103149439,0.0600147619843483,-0.1747317910194397,1510,1510,66.69583892822266,-0.0035953836049884558
3028463.748,634014758,218.59,103149433,0.07363691180944443,-0.1769622266292572,1510,1510,66.65804290771484,-0.0008721250342205167
3028563.748,634014758,218.59,103149433,0.07037188857793808,-0.17472277581691742,1510,1510,66.68156433105469,-0.0002854759222827852
3028663.748,634014757,218.59,103149428,0.05637700483202934,-0.17022334039211273,1510,1510,66.70541381835938,-0.00014737239689566195
3028763.748,634014757,218.59,103149428,0.0365983285009861,-0.16764719784259796,1510,1510,66.6993179321289,0.000058221361541654915
3028863.748,634014757,218.59,103149423,0.013323300518095493,-0.16009415686130524,1510,1510,66.7013931274414,-0.0004426396335475147
3028963.748,634014757,218.59,103149423,0.0001610075414646417,-0.15160858631134033,1510,1510,66.72440338134766,-0.0016036797314882278
3029063.748,634014756,218.59,103149418,0.0015238067135214806,-0.15455548465251923,1510,1510,66.71987915039062,-0.00293690524995327
3029163.748,634014756,218.59,103149418,0.0069754039868712425,-0.16180966794490814,1510,1510,66.7147445678711,-0.0036499574780464172
3029263.748,634014755,218.58,103149413,0.023289097473025322,-0.16107577085494995,1510,1510,66.69782257080078,-0.003287075785920024
3029363.748,634014755,218.58,103149413,0.04779304563999176,-0.1683482527732849,1510,1510,66.68677520751953,-0.0015848755137994885
3029463.748,634014754,218.59,103149409,0.07383748143911362,-0.1688910722732544,1510,1510,66.68852996826172,-0.0006261377711780369
3029563.748,634014754,218.59,103149409,0.07339031994342804,-0.1706939935684204,1510,1510,66.73064422607422,0.00013255189696792513
3029663.748,634014754,218.59,103149404,0.06105329841375351,-0.1692168414592743,1510,1510,66.77588653564453,0.00048633114784024656
3029763.748,634014754,218.59,103149404,0.04521551355719566,-0.17251601815223694,1510,1510,66.81729888916016,0.0016465828521177173
3029863.748,634014753,218.59,103149399,0.024893324822187424,-0.1622166931629181,1510,1510,66.85985565185547,0.0012889434583485126
3029963.748,634014753,218.59,103149399,0.007021423429250717,-0.15831106901168823,1510,1510,66.89075469970703,0.0001894575689220801
3030063.748,634014752,218.59,103149394,-0.0026235454715788364,-0.16278764605522156,1510,1510,66.89690399169922,-0.0011373325251042843
3030163.748,634014752,218.59,103149394,0.005073873326182365,-0.1607508659362793,1510,1510,66.90803527832031,-0.0021104998886585236
3030263.748,634014751,218.59,103149390,0.02394239231944084,-0.15923014283180237,1510,1510,66.89187622070312,-0.0021272492595016956
3030363.748,634014751,218.59,103149390,0.04798268899321556,-0.16304144263267517,1510,1510,66.91940307617188,-0.0005292881978675723
3030463.748,634014751,218.6,103149385,0.06312306225299835,-0.16965296864509583,1510,1510,66.95307922363281,0.0005470981122925878
3030563.748,634014751,218.6,103149385,0.07503201067447662,-0.17085634171962738,1510,1510,66.98509216308594,0.0012419276172295213
3030663.748,634014750,218.59,103149380,0.0683591365814209,-0.17415419220924377,1510,1510,67.02735900878906,0.0017817904008552432
3030763.748,634014750,218.59,103149380,0.05178258940577507,-0.17365139722824097,1510,1510,67.0982666015625,0.0023380517959594727
3030863.748,634014749,218.6,103149376,0.02555379457771778,-0.17034396529197693,1510,1510,67.14842987060547,0.0020191785879433155
3030963.748,634014749,218.6,103149376,-0.0014916469808667898,-0.16252179443836212,1510,1510,67.19931030273438,0.0012440504506230354
3031063.748,634014749,218.6,103149372,-0.006660984829068184,-0.15348702669143677,1510,1510,67.24292755126953,0.00011929932225029916
3031163.748,634014749,218.6,103149372,-0.0001911673170980066,-0.16118797659873962,1510,1510,67.24292755126953,-0.0009032623493112624
3031263.748,634014748,218.6,103149367,0.0251910462975502,-0.16064581274986267,1510,1510,67.23941040039062,-0.000719043833669275
3031363.748,634014748,218.6,103149367,0.04800046980381012,-0.16117022931575775,1510,1510,67.23403930664062,-0.00013871444389224052
3031463.748,634014747,218.6,103149362,0.0644240751862526,-0.1715582311153412,1510,1510,67.21487426757812,0.00037247504224069417
3031563.748,634014747,218.6,103149362,0.07129701972007751,-0.17472681403160095,1510,1510,67.2618179321289,0.0012950904201716185
3031663.748,634014746,218.6,103149358,0.06924033164978027,-0.17388573288917542,1510,1510,67.26006317138672,0.002256745472550392
3031763.748,634014746,218.6,103149358,0.039046090096235275,-0.17557141184806824,1510,1510,67.31864929199219,0.002774828113615513
3031863.748,634014746,218.6,103149353,0.025995422154664993,-0.16345256567001343,1510,1510,67.39448547363281,0.002218807814642787
3031963.748,634014746,218.6,103149353,0.007939113304018974,-0.1645551472902298,1510,1510,67.4064712524414,0.0008910155738703907
3032063.748,634014745,218.6,103149349,-0.006316876970231533,-0.158891499042511,1510,1510,67.44013214111328,-0.00042866228614002466
3032163.748,634014745,218.6,103149349,0.004124438390135765,-0.1601444035768509,1510,1510,67.4634780883789,-0.0014460165984928608
3032263.748,634014744,218.6,103149345,0.02848479337990284,-0.1633974015712738,1510,1510,67.45276641845703,-0.001130525255575776
3032363.748,634014744,218.6,103149345,0.05427452176809311,-0.16411972045898438,1510,1510,67.43048858642578,-0.00011863023246405646
3032463.748,634014743,218.59,103149340,0.06181137636303902,-0.1675977259874344,1510,1510,67.3952407836914,0.0004700751160271466
3032563.748,634014743,218.59,103149340,0.0667763352394104,-0.16915881633758545,1510,1510,67.35684204101562,0.0008657933794893324
3032663.748,634014743,218.6,103149336,0.04924774169921875,-0.1740664541721344,1510,1510,67.36576080322266,0.00107580644544214
3032763.748,634014743,218.6,103149336,0.036756061017513275,-0.1715550571680069,1510,1510,67.3583755493164,0.0011970847845077515
3032863.748,634014742,218.6,103149332,0.016672059893608093,-0.17098021507263184,1510,1510,67.36959838867188,0.000745805911719799
3032963.748,634014742,218.6,103149332,-0.0035111489705741405,-0.16775700449943542,1510,1510,67.39435577392578,-0.000476164830615744
3033063.748,634014742,218.6,103149327,-0.007207193411886692,-0.1618242859840393,1510,1510,67.40430450439453,-0.0016693109646439552
3033163.748,634014742,218.6,103149327,0.00906624086201191,-0.16271425783634186,1510,1510,67.37386322021484,-0.0021273924503475428
3033263.748,634014741,218.59,103149323,0.03212880343198776,-0.15984827280044556,1510,1510,67.36531829833984,-0.001386045478284359
3033363.748,634014741,218.59,103149323,0.07002083212137222,-0.1666376143693924,1510,1510,67.3588638305664,-0.000004943939984514145
3033463.748,634014741,218.6,103149319,0.07274777442216873,-0.1706470251083374,1510,1510,67.3457260131836,0.0004646414890885353
3033563.748,634014741,218.6,103149319,0.06954015046358109,-0.17526116967201233,1510,1510,67.34194946289062,0.00007593025657115504
3033663.748,634014740,218.6,103149315,0.04159868508577347,-0.16702601313591003,1510,1510,67.3620834350586,0.00012237871123943478
3033763.748,634014740,218.6,103149315,0.012255084700882435,-0.15976300835609436,1510,1510,67.42542266845703,0.000280291133094579
3033863.748,634014740,218.6,103149310,0.001753667718730867,-0.1608687937259674,1510,1510,67.45932006835938,0.0002486380690243095
3033963.748,634014740,218.6,103149310,0.005962342489510775,-0.16622503101825714,1510,1510,67.48750305175781,-0.0011402484960854053
3034063.748,634014739,218.6,103149305,0.009932732209563255,-0.16574867069721222,1510,1510,67.48534393310547,-0.00205002399161458
3034163.748,634014739,218.6,103149305,0.032882872968912125,-0.16170817613601685,1510,1510,67.49080657958984,-0.0020454050973057747
3034263.748,634014738,218.59,103149302,0.057201988995075226,-0.1656181812286377,1510,1510,67.44686889648438,-0.001052197301760316
3034363.748,634014738,218.59,103149302,0.0721772238612175,-0.16253262758255005,1510,1510,67.4302978515625,0.000010629767530190293
3034463.748,634014737,218.59,103149297,0.07165932655334473,-0.17063111066818237,1510,1510,67.44343566894531,0.0008681067847646773
3034563.748,634014737,218.59,103149297,0.051872264593839645,-0.17282938957214355,1510,1510,67.44640350341797,0.000513165898155421
3034663.748,634014737,218.59,103149293,0.01650734804570675,-0.1670127809047699,1510,1510,67.43714141845703,-0.0002980218851007521
3034763.748,634014737,218.59,103149293,-0.008269854821264744,-0.16257378458976746,1510,1510,67.44303894042969,-0.0008045774302445352
3034863.748,634014736,218.6,103149289,-0.002492348663508892,-0.15672942996025085,1510,1510,67.44904327392578,-0.0011195081751793623
3034963.748,634014736,218.6,103149289,0.0116425184533,-0.1634351760149002,1510,1510,67.44852447509766,-0.0017749654361978173
3035063.748,634014736,218.6,103149285,0.03237532079219818,-0.16733965277671814,1510,1510,67.43274688720703,-0.0019529757555574179
3035163.748,634014736,218.6,103149285,0.05493810772895813,-0.1629759967327118,1510,1510,67.4330825805664,-0.0010649284813553095
3035263.748,634014735,218.61,103149282,0.06340565532445908,-0.16408933699131012,1510,1510,67.45215606689453,0.0003236886113882065
3035363.748,634014735,218.61,103149282,0.0652378499507904,-0.17589354515075684,1510,1510,67.47738647460938,0.0010371841490268707
3035463.748,634014735,218.61,103149279,0.04895319789648056,-0.1701870858669281,1510,1510,67.48770904541016,0.0003546501393429935
3035563.748,634014735,218.61,103149279,0.019698001444339752,-0.15785105526447296,1510,1510,67.4861831665039,0.000006339190804283135
3035663.748,634014734,218.62,103149275,0.002090722555294633,-0.15980121493339539,1510,1510,67.51954650878906,-0.0006556520238518715
3035763.748,634014734,218.62,103149275,-0.003647131146863103,-0.16361595690250397,1510,1510,67.532470703125,-0.0008713419665582478
3035863.748,634014734,218.62,103149271,0.013010045513510704,-0.16042712330818176,1510,1510,67.58015441894531,-0.0012179682962596416
3035963.748,634014734,218.62,103149271,0.0385311022400856,-0.17181676626205444,1510,1510,67.57280731201172,-0.0009003232698887587
3036063.748,634014733,218.63,103149268,0.05911038815975189,-0.16762812435626984,1510,1510,67.58087158203125,-0.0005313991568982601
3036163.748,634014733,218.63,103149268,0.07365608960390091,-0.16506585478782654,1510,1510,67.59947204589844,0.00011449796875240281
3036263.748,634014733,218.63,103149265,0.05833761394023895,-0.16509310901165009,1510,1510,67.56768035888672,0.0011148587800562382
3036363.748,634014733,218.63,103149265,0.032990939915180206,-0.16880324482917786,1510,1510,67.59105682373047,0.0006635173922404647
3036463.748,634014732,218.63,103149261,0.015788957476615906,-0.17400771379470825,1510,1510,67.583984375,-0.000048265908844769
3036563.748,634014732,218.63,103149261,0.005993351805955172,-0.16034169495105743,1510,1510,67.59457397460938,-0.0009407236939296126
3036663.748,634014732,218.63,103149258,0.007967601530253887,-0.16662141680717468,1510,1510,67.59687042236328,-0.000735836336389184
3036763.748,634014732,218.63,103149258,0.03192037343978882,-0.16676077246665955,1510,1510,67.62882995605469,-0.00031910708639770746
3036863.748,634014731,218.64,103149254,0.050218794494867325,-0.16809912025928497,1510,1510,67.65101623535156,-0.0002962260623462498
3036963.748,634014731,218.64,103149254,0.054806191474199295,-0.16983447968959808,1510,1510,67.68231964111328,-0.0004954893374815583
3037063.748,634014731,218.64,103149251,0.05707451328635216,-0.16378283500671387,1510,1510,67.71739196777344,0.00042867273441515863
3037163.748,634014731,218.64,103149251,0.04378467798233032,-0.1586741805076599,1510,1510,67.72412872314453,0.0012041847221553326
3037263.748,634014731,218.65,103149247,0.021359315142035484,-0.16203106939792633,1510,1510,67.73785400390625,0.0006318605737760663
3037363.748,634014731,218.65,103149247,0.016311757266521454,-0.1624826341867447,1510,1510,67.72703552246094,-0.0002956779790110886
3037463.748,634014730,218.65,103149243,0.006584759335964918,-0.16623884439468384,1510,1510,67.72705841064453,-0.0009910984663292766
3037563.748,634014730,218.65,103149243,0.017115307971835136,-0.16837149858474731,1510,1510,67.70037841796875,-0.0008538202964700758
3037663.748,634014729,218.65,103149239,0.03852349519729614,-0.16018140316009521,1510,1510,67.69945526123047,-0.0002130243374267593
3037763.748,634014729,218.65,103149239,0.05055762082338333,-0.16555136442184448,1510,1510,67.74406433105469,0.00019297940889373422
3037863.748,634014729,218.66,103149236,0.05354167893528938,-0.1672132909297943,1510,1510,67.79476165771484,0.00014710226969327778
3037963.748,634014729,218.66,103149236,0.04701843485236168,-0.17110489308834076,1510,1510,67.81867218017578,0.00009385535668116063
3038063.748,634014729,218.67,103149232,0.023906778544187546,-0.1645483821630478,1510,1510,67.82215118408203,-0.00009292294998886064