timestamp(ms),GPS.Lat,GPS.Alt,GPS.Lng,IMU.AccX,IMU.AccY,RCOU.C1,RCOU.C3,DCM.Yaw,IMU.GyrZ
1444243.083,634015810,220.19,103149769,0.029267003759741783,-0.16047006845474243,1510,1510,74.34672546386719,-0.015965331345796585
1444343.083,634015810,220.19,103149768,0.0268273763358593,-0.15886376798152924,1510,1510,74.23397827148438,-0.016452264040708542
1444443.083,634015810,220.19,103149768,0.02633843384683132,-0.1598941832780838,1510,1510,74.1278305053711,-0.016618719324469566
1444543.083,634015810,220.19,103149768,0.03283713385462761,-0.1637667417526245,1510,1510,74.01952362060547,-0.016886282712221146
1444643.083,634015811,220.19,103149767,0.022915858775377274,-0.1593368649482727,1510,1510,73.90077209472656,-0.01680455543100834
1444743.083,634015811,220.19,103149767,0.0253031887114048,-0.15697979927062988,1510,1510,73.80073547363281,-0.016760069876909256
1444843.083,634015811,220.19,103149767,0.024073954671621323,-0.15412390232086182,1510,1510,73.6955795288086,-0.01639769971370697
1444943.083,634015811,220.18,103149766,0.025252196937799454,-0.15684522688388824,1510,1510,73.57398986816406,-0.016603980213403702
1445043.083,634015811,220.18,103149766,0.031162885949015617,-0.15925553441047668,1510,1510,73.46672058105469,-0.016972720623016357
1445143.083,634015811,220.18,103149766,0.030201701447367668,-0.16516810655593872,1510,1510,73.35343170166016,-0.017170988023281097
1445243.083,634015811,220.18,103149766,0.025914466008543968,-0.16314822435379028,1510,1510,73.22933197021484,-0.01713988557457924
1445343.083,634015811,220.17,103149765,0.025538284331560135,-0.15614286065101624,1510,1510,73.12625885009766,-0.016766615211963654
1445443.083,634015811,220.17,103149765,0.019570447504520416,-0.15790106356143951,1510,1510,73.04478454589844,-0.016352402046322823
1445543.083,634015811,220.17,103149765,0.021957844495773315,-0.15791477262973785,1510,1510,72.92835235595703,-0.016640059649944305
1445643.083,634015812,220.17,103149764,0.01718033291399479,-0.15126314759254456,1510,1510,72.81510162353516,-0.017352955415844917
1445743.083,634015812,220.16,103149763,0.022313877940177917,-0.15705575048923492,1510,1510,72.71315002441406,-0.017210843041539192
1445843.083,634015812,220.16,103149763,0.018269706517457962,-0.15529701113700867,1510,1510,72.71315002441406,-0.01697295904159546
1445943.083,634015812,220.16,103149762,0.026503730565309525,-0.1621032953262329,1510,1510,72.61705780029297,-0.01711297780275345
1446043.083,634015812,220.16,103149762,0.026151170954108238,-0.15825146436691284,1510,1510,72.5124740600586,-0.017127621918916702
1446143.083,634015812,220.16,103149761,0.025684846565127373,-0.15622377395629883,1510,1510,72.41658020019531,-0.01684574782848358
1446243.083,634015812,220.16,103149761,0.026962079107761383,-0.15818120539188385,1510,1510,72.31698608398438,-0.017010368406772614
1446343.083,634015812,220.15,103149761,0.02655111625790596,-0.1647634655237198,1510,1510,72.18934631347656,-0.017030563205480576
1446443.083,634015812,220.15,103149761,0.025280700996518135,-0.15827712416648865,1510,1510,72.08504486083984,-0.017194213345646858
1446543.083,634015812,220.15,103149761,0.019546963274478912,-0.15946491062641144,1510,1510,71.98182678222656,-0.017160478979349136
1446643.083,634015812,220.15,103149760,0.025444841012358665,-0.15798352658748627,1510,1510,71.89115142822266,-0.017198601737618446
1446743.083,634015813,220.15,103149759,0.029560551047325134,-0.1597493439912796,1510,1510,71.79118347167969,-0.017068948596715927
1446843.083,634015813,220.15,103149759,0.02989203855395317,-0.16325630247592926,1510,1510,71.69036102294922,-0.017091428861021996
1446943.083,634015813,220.15,103149758,0.022993488237261772,-0.16622036695480347,1510,1510,71.58057403564453,-0.017410067841410637
1447043.083,634015813,220.15,103149758,0.024790719151496887,-0.1585092395544052,1510,1510,71.46041107177734,-0.017909374088048935
1447143.083,634015814,220.14,103149757,0.022232133895158768,-0.1595279425382614,1510,1510,71.35184478759766,-0.01776348613202572
1447243.083,634015814,220.14,103149757,0.022946521639823914,-0.15769557654857635,1510,1510,71.2380599975586,-0.017651181668043137
1447343.083,634015814,220.14,103149757,0.024957550689578056,-0.16127246618270874,1510,1510,71.11553955078125,-0.017439860850572586
1447443.083,634015814,220.14,103149757,0.027295760810375214,-0.15784576535224915,1510,1510,70.99889373779297,-0.01746341958642006
1447543.083,634015814,220.14,103149757,0.028307583183050156,-0.158064067363739,1510,1510,70.8792953491211,-0.01786782592535019
1447643.083,634015814,220.14,103149755,0.029808979481458664,-0.16155286133289337,1510,1510,70.76160430908203,-0.01794656738638878
1447743.083,634015815,220.14,103149754,0.03574104979634285,-0.15692658722400665,1510,1510,70.61241149902344,-0.017926346510648727
1447843.083,634015815,220.14,103149754,0.02922619692981243,-0.16067858040332794,1510,1510,70.48831176757812,-0.017884735018014908
1447943.083,634015815,220.14,103149754,0.02419714815914631,-0.16412551701068878,1510,1510,70.3773193359375,-0.018089337274432182
1448043.083,634015815,220.14,103149754,0.02841353416442871,-0.15596283972263336,1510,1510,70.27418518066406,-0.017584817484021187
1448143.083,634015816,220.14,103149753,0.02870546281337738,-0.16465988755226135,1510,1510,70.15204620361328,-0.017610842362046242
1448243.083,634015816,220.14,103149753,0.024900712072849274,-0.15970003604888916,1510,1510,70.05799102783203,-0.017923695966601372
1448343.083,634015816,220.14,103149752,0.026051528751850128,-0.16119037568569183,1510,1510,69.95391845703125,-0.018352150917053223
1448443.083,634015816,220.14,103149752,0.02380264550447464,-0.1598273068666458,1510,1510,69.86066436767578,-0.018583456054329872
1448543.083,634015816,220.14,103149752,0.026418199762701988,-0.15924301743507385,1510,1510,69.75782775878906,-0.01833260990679264
1448643.083,634015817,220.14,103149751,0.022172704339027405,-0.16086307168006897,1510,1510,69.66011047363281,-0.018026642501354218
1448743.083,634015817,220.14,103149751,0.027742944657802582,-0.16494835913181305,1510,1510,69.55461120605469,-0.018273387104272842
1448843.083,634015817,220.14,103149751,0.0299955066293478,-0.1539323627948761,1510,1510,69.46957397460938,-0.01807055063545704
1448943.083,634015818,220.14,103149750,0.03185342624783516,-0.1526924967765808,1510,1510,69.36730194091797,-0.01803753525018692
1449043.083,634015818,220.14,103149750,0.029764005914330482,-0.15667806565761566,1510,1510,69.28231048583984,-0.01835557632148266
1449143.083,634015818,220.14,103149750,0.027186688035726547,-0.16035591065883636,1510,1510,69.1807861328125,-0.01886538416147232
1449243.083,634015818,220.14,103149750,0.016107682138681412,-0.15476340055465698,1510,1510,69.05918884277344,-0.018530061468482018
1449343.083,634015818,220.14,103149748,0.02435414493083954,-0.1630443036556244,1510,1510,68.94364166259766,-0.018523788079619408
1449443.083,634015818,220.14,103149748,0.02612481825053692,-0.16254015266895294,1510,1510,68.85515594482422,-0.018058422952890396
1449543.083,634015818,220.14,103149748,0.028885627165436745,-0.16240845620632172,1510,1510,68.72293090820312,-0.018084589391946793
1449643.083,634015819,220.15,103149747,0.022302748635411263,-0.1577446311712265,1510,1510,68.61396026611328,-0.018733270466327667
1449743.083,634015819,220.14,103149747,0.02828337252140045,-0.15891139209270477,1510,1510,68.52092742919922,-0.018852783367037773
1449843.083,634015819,220.14,103149747,0.019880589097738266,-0.14794188737869263,1510,1510,68.41316223144531,-0.01858527958393097
1449943.083,634015819,220.14,103149746,0.01967296563088894,-0.16047751903533936,1510,1510,68.29885864257812,-0.01831444911658764
1450043.083,634015819,220.14,103149746,0.03549494594335556,-0.15026575326919556,1510,1510,68.17778015136719,-0.018227634951472282
1450143.083,634015820,220.14,103149745,0.028504326939582825,-0.15767136216163635,1510,1510,68.0470962524414,-0.01852590963244438
1450243.083,634015820,220.14,103149745,0.030080650001764297,-0.15352056920528412,1510,1510,67.94293212890625,-0.018730686977505684
1450343.083,634015821,220.13,103149744,0.02815854921936989,-0.15854424238204956,1510,1510,67.82903289794922,-0.01854451186954975
1450443.083,634015821,220.13,103149744,0.027168843895196915,-0.15874314308166504,1510,1510,67.7154769897461,-0.018541596829891205
1450543.083,634015821,220.13,103149744,0.02600429207086563,-0.16228660941123962,1510,1510,67.61456298828125,-0.018757160753011703
1450643.083,634015821,220.13,103149744,0.020777160301804543,-0.16151532530784607,1510,1510,67.50055694580078,-0.018617410212755203
1450743.083,634015822,220.13,103149743,0.024201327934861183,-0.16150403022766113,1510,1510,67.37225341796875,-0.018644770607352257
1450843.083,634015822,220.13,103149743,0.03230300918221474,-0.15358023345470428,1510,1510,67.22272491455078,-0.018429813906550407
1450943.083,634015822,220.12,103149743,0.0323229543864727,-0.15789614617824554,1510,1510,67.10857391357422,-0.019154785200953484
1451043.083,634015822,220.12,103149743,0.02086811698973179,-0.15770289301872253,1510,1510,66.97753143310547,-0.01930820569396019
1451143.083,634015823,220.12,103149742,0.02765665017068386,-0.1683574616909027,1510,1510,66.84688568115234,-0.019336840137839317
1451243.083,634015823,220.12,103149742,0.025410007685422897,-0.16127648949623108,1510,1510,66.7186050415039,-0.018918486312031746
1451343.083,634015823,220.12,103149741,0.02621632255613804,-0.15825657546520233,1510,1510,66.5889892578125,-0.018900616094470024
1451443.083,634015823,220.12,103149741,0.023645708337426186,-0.15791869163513184,1510,1510,66.4990234375,-0.018966469913721085
1451543.083,634015823,220.12,103149742,0.03047260455787182,-0.1625366508960724,1510,1510,66.38432312011719,-0.018913906067609787
1451643.083,634015823,220.12,103149742,0.029392115771770477,-0.15717633068561554,1510,1510,66.27182006835938,-0.01915491372346878
1451743.083,634015824,220.12,103149741,0.02550169639289379,-0.15124966204166412,1510,1510,66.16365051269531,-0.019528085365891457
1451843.083,634015824,220.12,103149741,0.025296388193964958,-0.1579444408416748,1510,1510,66.0643081665039,-0.019459769129753113
1451943.083,634015824,220.12,103149740,0.020119622349739075,-0.15973636507987976,1510,1510,65.95333099365234,-0.019236788153648376
1452043.083,634015824,220.12,103149740,0.029928747564554214,-0.16820478439331055,1510,1510,65.83112335205078,-0.019191058352589607
1452143.083,634015825,220.12,103149740,0.031100161373615265,-0.16190604865550995,1510,1510,65.70526123046875,-0.01949227787554264
1452243.083,634015825,220.12,103149740,0.026595434173941612,-0.1538998931646347,1510,1510,65.59077453613281,-0.019209789112210274
1452343.083,634015825,220.12,103149740,0.02839711867272854,-0.15393728017807007,1510,1510,65.45801544189453,-0.01946604624390602
1452443.083,634015825,220.12,103149740,0.024428002536296844,-0.15690819919109344,1510,1510,65.35347747802734,-0.019757889211177826
1452543.083,634015825,220.12,103149740,0.023746635764837265,-0.15765544772148132,1510,1510,65.23308563232422,-0.02000739797949791
1452643.083,634015825,220.12,103149740,0.027387740090489388,-0.16403625905513763,1510,1510,65.11380004882812,-0.019965944811701775
1452743.083,634015825,220.12,103149739,0.02504580467939377,-0.15994247794151306,1510,1510,65.00247955322266,-0.019504977390170097
1452843.083,634015825,220.12,103149739,0.028974374756217003,-0.1625416874885559,1510,1510,64.86906433105469,-0.019503161311149597
1452943.083,634015825,220.12,103149739,0.024472102522850037,-0.1554531306028366,1510,1510,64.76998901367188,-0.019822102040052414
1453043.083,634015825,220.12,103149739,0.02911081165075302,-0.1572447121143341,1461,1556,64.65653991699219,-0.01980224996805191
1453143.083,634015826,220.13,103149741,0.5712359547615051,-0.1639125943183899,1379,1634,64.56378173828125,-0.01915537379682064
1453243.083,634015826,220.13,103149741,0.628061056137085,-0.1718572974205017,1297,1712,64.4595947265625,-0.017925944179296494
1453343.083,634015828,220.14,103149749,1.4747645854949951,-0.169694721698761,1215,1790,64.35185241699219,-0.014727872796356678
1453443.083,634015828,220.14,103149749,4.104921340942383,-0.12977340817451477,1133,1868,64.3177261352539,-0.005745727568864822
1453543.083,634015837,220.18,103149785,5.800474166870117,-0.18249116837978363,1100,1900,64.34735870361328,0.0005617258138954639
1453643.083,634015837,220.18,103149785,5.692041873931885,-0.20964044332504272,1100,1900,64.30863189697266,-0.010052389465272427
1453743.083,634015854,220.18,103149846,5.492027282714844,-0.16600093245506287,1100,1900,64.1782455444336,-0.01722358912229538
1453843.083,634015854,220.18,103149846,5.081175327301025,-0.2404594123363495,1100,1900,63.94906234741211,-0.020747072994709015
1453943.083,634015876,220.15,103149924,4.48369026184082,-0.2910991907119751,1150,1853,63.67877960205078,-0.020435888320207596
1454043.083,634015876,220.15,103149924,2.9994444847106934,-0.3514106869697571,1170,1833,63.276222229003906,-0.03029807284474373
1454143.083,634015900,220.14,103150009,3.0090906620025635,-0.36876794695854187,1113,1888,62.7164192199707,-0.05067669600248337
1454243.083,634015900,220.14,103150009,3.0778579711914062,-0.435533344745636,1100,1900,62.10187911987305,-0.0636160746216774
1454343.083,634015925,220.15,103150100,3.01711106300354,-0.48316264152526855,1100,1900,61.37255859375,-0.06783708184957504
1454443.083,634015925,220.15,103150100,2.974661111831665,-0.4268157184123993,1100,1900,60.66572952270508,-0.0682123526930809
1454543.083,634015925,220.15,103150100,3.000750780105591,-0.507717490196228,1100,1900,59.96876907348633,-0.06202476844191551
1454643.083,634015955,220.16,103150197,2.7612802982330322,-0.44650712609291077,1100,1900,59.250221252441406,-0.06199091300368309
1454743.083,634015985,220.15,103150297,2.4694318771362305,-0.4434930384159088,1100,1900,58.53722381591797,-0.0626668930053711
1454843.083,634015985,220.15,103150297,2.302820920944214,-0.43210533261299133,1100,1900,57.812232971191406,-0.058471016585826874
1454943.083,634016016,220.14,103150396,2.270766258239746,-0.4081835448741913,1100,1900,57.09304428100586,-0.055268511176109314
1455043.083,634016016,220.14,103150396,2.2518386840820312,-0.4989725351333618,1100,1900,56.31175994873047,-0.06317272782325745
1455143.083,634016047,220.14,103150495,2.3090062141418457,-0.44547539949417114,1100,1900,55.576805114746094,-0.06024894118309021
1455243.083,634016047,220.14,103150495,2.458486795425415,-0.402110755443573,1100,1900,54.892486572265625,-0.04883401840925217
1455343.083,634016080,220.13,103150593,2.6064770221710205,-0.4816510081291199,1100,1900,54.14305114746094,-0.051519762724637985
1455443.083,634016080,220.13,103150593,2.504610538482666,-0.5369261503219604,1100,1900,53.44337463378906,-0.05830874294042587
1455543.083,634016080,220.13,103150593,2.3439693450927734,-0.47460880875587463,1100,1900,52.68796157836914,-0.062084928154945374
1455643.083,634016113,220.13,103150692,2.265655755996704,-0.4950968623161316,1100,1900,51.95643997192383,-0.06590739637613297
1455743.083,634016147,220.12,103150790,2.1610348224639893,-0.4719915986061096,1100,1900,51.21333694458008,-0.06664600968360901
1455843.083,634016147,220.12,103150790,2.267690658569336,-0.5070427656173706,1100,1900,50.47269821166992,-0.06302054971456528
1455943.083,634016181,220.11,103150887,2.3374476432800293,-0.5498274564743042,1100,1900,49.725677490234375,-0.06699054688215256
1456043.083,634016181,220.11,103150887,2.3895678520202637,-0.6268783211708069,1100,1900,48.887638092041016,-0.07584106922149658
1456143.083,634016216,220.11,103150983,2.3948545455932617,-0.6069834232330322,1100,1900,48.08896255493164,-0.07898353040218353
1456243.083,634016216,220.11,103150983,2.297875165939331,-0.6035204529762268,1100,1900,47.296669006347656,-0.07829352468252182
1456343.083,634016252,220.1,103151079,2.178349018096924,-0.5549319982528687,1100,1900,46.54256057739258,-0.0746644139289856
1456443.083,634016252,220.1,103151079,2.2348556518554688,-0.5295540690422058,1100,1900,45.7756233215332,-0.07156119495630264
1456543.083,634016252,220.1,103151079,2.20947003364563,-0.5876575708389282,1100,1900,45.01139450073242,-0.07221777737140656
1456643.083,634016289,220.1,103151171,2.2724506855010986,-0.48731622099876404,1100,1900,44.290931701660156,-0.07015389204025269
1456743.083,634016325,220.09,103151264,2.377007246017456,-0.5384599566459656,1100,1900,43.54727554321289,-0.06896184384822845
1456843.083,634016325,220.09,103151264,2.3124523162841797,-0.5425782203674316,1100,1900,42.81241989135742,-0.07197003066539764
1456943.083,634016362,220.08,103151355,2.340184211730957,-0.5538307428359985,1100,1900,42.06233596801758,-0.0717305988073349
1457043.083,634016362,220.08,103151355,2.297468662261963,-0.5772061944007874,1100,1900,41.321014404296875,-0.07181467860937119
1457143.083,634016401,220.07,103151443,2.188809394836426,-0.5178409218788147,1133,1868,40.67757034301758,-0.06847035139799118
1457243.083,634016401,220.07,103151443,1.5565450191497803,-0.48621511459350586,1215,1790,39.9831657409668,-0.06438316404819489
1457343.083,634016437,220.05,103151524,0.7496132850646973,-0.5016250610351562,1433,1842,39.38893508911133,-0.061569809913635254
1457443.083,634016437,220.05,103151524,-0.1661977916955948,0.09094639867544174,1792,1900,39.42679977416992,-0.016971567645668983
1457543.083,634016437,220.05,103151524,0.025510355830192566,0.2918396294116974,1900,1847,40.2227783203125,0.11589834094047546
1457643.083,634016469,220.04,103151598,-0.5769696831703186,0.3642561435699463,1900,1753,41.218597412109375,0.1946243941783905
1457743.083,634016496,220.03,103151668,-0.7847813367843628,0.32945185899734497,1900,1753,42.254146575927734,0.18954509496688843
1457843.083,634016496,220.03,103151668,-0.5924819707870483,0.3991229236125946,1900,1753,43.18313980102539,0.17598150670528412
1457943.083,634016520,220.03,103151730,-0.6798933744430542,0.3356209397315979,1900,1753,43.93422317504883,0.15329837799072266
1458043.083,634016520,220.03,103151730,-0.3435734510421753,0.15831586718559265,1900,1753,44.56899642944336,0.13659226894378662
1458143.083,634016538,220.02,103151791,-0.2356313019990921,0.11961246281862259,1900,1753,45.08726119995117,0.1222953051328659
1458243.083,634016538,220.02,103151791,0.17798155546188354,-0.003526532556861639,1900,1753,45.579376220703125,0.1149650514125824
1458343.083,634016556,220,103151849,-0.32117652893066406,0.31932008266448975,1900,1753,46.25775909423828,0.12706592679023743
1458443.083,634016556,220,103151849,-0.4021616578102112,0.174270898103714,1900,1753,47.29477310180664,0.17756536602973938
1458543.083,634016556,220,103151849,-0.5049653053283691,0.21314194798469543,1900,1753,48.52349090576172,0.21810266375541687
1458643.083,634016568,219.98,103151899,-0.5486205220222473,0.463156521320343,1900,1753,49.77517318725586,0.23838390409946442
1458743.083,634016577,219.96,103151938,-1.2071328163146973,0.23204456269741058,1900,1753,51.00733947753906,0.23869314789772034
1458843.083,634016577,219.96,103151938,-0.9133867025375366,0.22210079431533813,1900,1753,52.58122253417969,0.2801434397697449
1458943.083,634016584,219.96,103151973,-0.005081868730485439,0.41959384083747864,1900,1753,54.256431579589844,0.32842960953712463
1459043.083,634016584,219.96,103151973,-0.41892099380493164,0.3366309404373169,1900,1753,55.983516693115234,0.33678138256073
1459143.083,634016589,219.94,103152003,-0.6102600693702698,0.16832366585731506,1900,1753,57.75346755981445,0.3380030691623688
1459243.083,634016589,219.94,103152003,-0.7420281767845154,0.3800981044769287,1900,1753,59.9297981262207,0.3877173960208893
1459343.083,634016591,219.91,103152028,-0.7248003482818604,0.2842114567756653,1900,1753,62.58567428588867,0.4710868299007416
1459443.083,634016591,219.91,103152028,-0.8402873873710632,0.22915521264076233,1900,1753,65.55121612548828,0.5285271406173706
1459543.083,634016591,219.91,103152028,-0.8115381002426147,0.29386627674102783,1900,1753,68.89864349365234,0.5967142581939697
1459643.083,634016590,219.9,103152047,-0.6498296856880188,0.2493947446346283,1900,1753,72.85039520263672,0.6923116445541382
1459743.083,634016589,219.91,103152063,-0.7742303609848022,0.3351942002773285,1900,1753,77.27828979492188,0.7864915132522583
1459843.083,634016589,219.91,103152063,-0.42396992444992065,0.14343592524528503,1900,1753,82.22265625,0.8691755533218384
1459943.083,634016587,219.91,103152075,-0.9552127122879028,0.34955739974975586,1900,1753,87.52508544921875,0.940018892288208
1460043.083,634016587,219.91,103152075,-0.6842582821846008,0.2974167466163635,1900,1753,93.07279205322266,0.9946098923683167
1460143.083,634016583,219.91,103152085,0.10058105736970901,0.1701693832874298,1900,1753,98.54216766357422,1.0009596347808838
1460243.083,634016583,219.91,103152085,-0.07832363247871399,0.2507602274417877,1900,1753,103.85377502441406,0.9623401165008545
1460343.083,634016579,219.89,103152092,-0.4426303207874298,0.04373575374484062,1900,1753,108.9765396118164,0.9300855994224548
1460443.083,634016579,219.89,103152092,-0.22617511451244354,-0.28458088636398315,1900,1753,114.10353088378906,0.920619010925293
1460543.083,634016579,219.89,103152092,-0.3756673336029053,-0.20557105541229248,1900,1753,119.20470428466797,0.894385576248169
1460643.083,634016575,219.89,103152096,-0.4842091500759125,-0.2353576421737671,1900,1753,124.3096694946289,0.8799592852592468
1460743.083,634016572,219.88,103152098,-0.5325069427490234,-0.04434574767947197,1900,1753,129.58181762695312,0.8821821808815002
1460843.083,634016572,219.88,103152098,-0.5767322778701782,0.27143198251724243,1900,1753,134.98477172851562,0.9080348014831543
1460943.083,634016568,219.87,103152099,-0.43248245120048523,0.1798865795135498,1900,1753,140.649658203125,0.9550325274467468
1461043.083,634016568,219.87,103152099,-0.4988443851470947,0.23525404930114746,1900,1753,146.52743530273438,0.9837377667427063
1461143.083,634016567,219.86,103152094,-0.4724225401878357,0.1604451835155487,1900,1753,152.43211364746094,0.9976218938827515
1461243.083,634016567,219.86,103152094,-0.47380709648132324,0.08192563056945801,1900,1753,158.4124298095703,1.0076018571853638
1461343.083,634016567,219.83,103152089,-0.2764965295791626,-0.023875314742326736,1900,1753,164.39041137695312,1.0042170286178589
1461443.083,634016567,219.83,103152089,-0.3728710114955902,-0.17500677704811096,1900,1753,170.20204162597656,0.9859219789505005
1461543.083,634016567,219.83,103152089,-0.257695734500885,-0.34793931245803833,1900,1753,176.06484985351562,0.9835492372512817
1461643.083,634016567,219.83,103152086,-0.48348093032836914,-0.5161316990852356,1900,1753,181.9515380859375,0.9897570610046387
1461743.083,634016569,219.84,103152084,-0.5460374355316162,-0.4069982171058655,1900,1753,187.83453369140625,0.9830596446990967
1461843.083,634016569,219.84,103152084,-0.5778074860572815,-0.2618444561958313,1900,1753,193.82984924316406,0.977301836013794
1461943.083,634016572,219.85,103152083,-0.45927292108535767,0.054354697465896606,1900,1753,199.88836669921875,0.9934108853340149
1462043.083,634016572,219.85,103152083,-0.4297795295715332,-0.07761919498443604,1900,1753,206.00320434570312,1.013772964477539
1462143.083,634016575,219.83,103152084,-0.22018800675868988,0.01956624537706375,1900,1753,212.0821075439453,1.0170974731445312
1462243.083,634016575,219.83,103152084,-0.036139003932476044,-0.6545737981796265,1406,1133,217.890380859375,1.0105258226394653
1462343.083,634016576,219.81,103152085,0.35554784536361694,-0.9319435358047485,1501,1100,222.3058319091797,0.8126176595687866
1462443.083,634016576,219.81,103152085,-0.07298808544874191,-0.5174322724342346,1433,1100,225.75198364257812,0.6304844617843628
1462543.083,634016576,219.81,103152085,0.1414700597524643,-0.7435089349746704,1360,1112,228.68637084960938,0.5265318155288696
1462643.083,634016576,219.81,103152086,0.08598770946264267,-0.7649779319763184,1510,1510,231.29934692382812,0.44711971282958984
1462743.083,634016575,219.79,103152086,0.043777868151664734,-0.19623762369155884,1510,1510,233.7988739013672,0.41787272691726685
1462843.083,634016575,219.79,103152086,0.3024570047855377,-0.13128405809402466,1510,1510,236.0870361328125,0.38902443647384644
1462943.083,634016574,219.79,103152086,0.011615950614213943,-0.09864667803049088,1510,1510,238.08787536621094,0.34310609102249146
1463043.083,634016574,219.79,103152086,0.17914336919784546,0.04696940258145332,1510,1510,239.802978515625,0.29625898599624634
1463143.083,634016572,219.78,103152082,0.10386593639850616,-0.08891265094280243,1510,1510,241.27359008789062,0.2543785572052002
1463243.083,634016572,219.78,103152082,0.13025213778018951,-0.3250286877155304,1510,1510,242.5371856689453,0.21699123084545135
1463343.083,634016571,219.78,103152080,0.01809525489807129,-0.21670746803283691,1510,1510,243.64871215820312,0.19040009379386902
1463443.083,634016571,219.78,103152080,-0.00928499922156334,-0.2304745614528656,1510,1510,244.7254638671875,0.17972397804260254
1463543.083,634016571,219.78,103152080,-0.043754562735557556,-0.2737528085708618,1510,1510,245.86312866210938,0.1830277293920517
1463643.083,634016569,219.78,103152077,0.09002822637557983,-0.13674162328243256,1510,1510,247.042724609375,0.1854824721813202
1463743.083,634016568,219.78,103152075,0.09208811074495316,-0.09830296784639359,1510,1510,248.131591796875,0.17780143022537231
1463843.083,634016568,219.78,103152075,0.08831749111413956,-0.15375593304634094,1510,1510,249.048828125,0.160506471991539
1463943.083,634016567,219.78,103152072,0.0671692043542862,-0.09477978199720383,1510,1510,249.86865234375,0.1391635239124298
1464043.083,634016567,219.78,103152072,0.031264711171388626,-0.1345745027065277,1510,1510,250.57208251953125,0.12008369714021683
1464143.083,634016565,219.78,103152069,-0.012476000934839249,-0.205398291349411,1510,1510,251.22683715820312,0.10922098904848099
1464243.083,634016565,219.78,103152069,-0.006529173813760281,-0.1722741574048996,1510,1510,251.85340881347656,0.10416553914546967
1464343.083,634016564,219.78,103152065,-0.005639403127133846,-0.14729994535446167,1510,1510,252.52757263183594,0.10286467522382736
1464443.083,634016564,219.78,103152065,0.001581769553013146,-0.13281768560409546,1510,1510,253.19476318359375,0.10431919246912003
1464543.083,634016564,219.78,103152065,0.05116048827767372,-0.10523071885108948,1510,1510,253.84918212890625,0.1025143563747406
1464643.083,634016563,219.78,103152062,0.06411668658256531,-0.14741140604019165,1510,1510,254.42062377929688,0.09327921271324158
1464743.083,634016561,219.77,103152059,0.06168476492166519,-0.2027837336063385,1510,1510,254.94134521484375,0.0801529735326767
1464843.083,634016561,219.77,103152059,0.025432707741856575,-0.19348159432411194,1510,1510,255.41070556640625,0.07033846527338028
1464943.083,634016560,219.78,103152055,-0.005676316563040018,-0.1727699637413025,1510,1510,255.8817138671875,0.07088347524404526
1465043.083,634016560,219.78,103152055,-0.00956053752452135,-0.15911802649497986,1510,1510,256.37945556640625,0.07748647779226303
1465143.083,634016559,219.77,103152052,0.032253239303827286,-0.1286475509405136,1510,1510,256.89581298828125,0.08058691769838333
1465243.083,634016559,219.77,103152052,0.0397370308637619,-0.13987740874290466,1510,1510,257.3652038574219,0.07666242122650146
1465343.083,634016558,219.78,103152048,0.018399111926555634,-0.15234896540641785,1510,1510,257.7942199707031,0.06852679699659348
1465443.083,634016558,219.78,103152048,0.0012025089235976338,-0.14993490278720856,1510,1510,258.2093505859375,0.061671722680330276
1465543.083,634016557,219.77,103152045,-0.011900996789336205,-0.15831518173217773,1510,1510,258.617919921875,0.0595569983124733
1465643.083,634016557,219.77,103152045,-0.009814806282520294,-0.14712382853031158,1510,1510,259.0314636230469,0.06098169833421707
1465743.083,634016556,219.77,103152042,0.013227724470198154,-0.12494344264268875,1510,1510,259.456787109375,0.06299782544374466
1465843.083,634016556,219.77,103152042,0.018066085875034332,-0.12292052060365677,1510,1510,259.87017822265625,0.06255744397640228
1465943.083,634016554,219.77,103152039,0.007479400373995304,-0.13867850601673126,1510,1510,260.24261474609375,0.059626560658216476
1466043.083,634016554,219.77,103152039,-0.004888457246124744,-0.1563219577074051,1510,1510,260.649658203125,0.05697336792945862
1466143.083,634016552,219.77,103152035,-0.006026438437402248,-0.16665804386138916,1510,1510,261.0291442871094,0.0555550679564476
1466243.083,634016552,219.77,103152035,0.01462156418710947,-0.18089117109775543,1510,1510,261.4158935546875,0.05610961467027664
1466343.083,634016551,219.78,103152033,0.055241286754608154,-0.18321624398231506,1510,1510,261.799560546875,0.05745561048388481
1466443.083,634016551,219.78,103152033,0.059234894812107086,-0.174724280834198,1510,1510,262.15643310546875,0.05674346908926964
1466543.083,634016551,219.78,103152033,0.04504360258579254,-0.15647679567337036,1510,1510,262.49298095703125,0.05312690883874893
1466643.083,634016550,219.77,103152028,0.01982180029153824,-0.13111472129821777,1510,1510,262.8075866699219,0.04866074025630951
1466743.083,634016549,219.78,103152025,0.004141166806221008,-0.131576806306839,1510,1510,263.091064453125,0.043397046625614166
1466843.083,634016549,219.78,103152025,-0.005678492598235607,-0.12638229131698608,1510,1510,263.3291320800781,0.03883921355009079
1466943.083,634016548,219.78,103152021,-0.005318363197147846,-0.12471285462379456,1510,1510,263.6018981933594,0.03550684452056885
1467043.083,634016548,219.78,103152021,0.009710898622870445,-0.1317051351070404,1510,1510,263.840576171875,0.0336514413356781
1467143.083,634016546,219.77,103152017,0.02241445519030094,-0.15607786178588867,1510,1510,264.07550048828125,0.032958898693323135
1467243.083,634016546,219.77,103152017,0.022887226194143295,-0.15949487686157227,1510,1510,264.31353759765625,0.03206465765833855
1467343.083,634016546,219.77,103152014,0.03837547078728676,-0.16215956211090088,1510,1510,264.56805419921875,0.03066262975335121
1467443.083,634016546,219.77,103152014,0.049156371504068375,-0.1701141744852066,1510,1510,264.765380859375,0.029469896107912064
1467543.083,634016546,219.77,103152014,0.056006770581007004,-0.18606775999069214,1510,1510,264.9599609375,0.02833828143775463
1467643.083,634016546,219.79,103152009,0.04979674518108368,-0.1827918291091919,1510,1510,265.1425476074219,0.026662588119506836
1467743.083,634016545,219.8,103152005,0.018081117421388626,-0.16729170083999634,1510,1510,265.30609130859375,0.024386757984757423
1467843.083,634016545,219.8,103152005,0.018285302445292473,-0.1480453610420227,1510,1510,265.46160888671875,0.021935734897851944
1467943.083,634016544,219.81,103152002,0.01102818176150322,-0.12441086769104004,1510,1510,265.5867004394531,0.017022311687469482
1468043.083,634016544,219.81,103152002,-0.002902485430240631,-0.10670208185911179,1510,1510,265.697509765625,0.011810445226728916
1468143.083,634016542,219.79,103151998,-0.005030287895351648,-0.10673435032367706,1510,1510,265.7821044921875,0.009387100115418434
1468243.083,634016542,219.79,103151998,0.015456045977771282,-0.1262521743774414,1510,1510,265.890380859375,0.009939457289874554
1468343.083,634016541,219.79,103151995,0.04626376926898956,-0.1630527675151825,1510,1510,266.0074462890625,0.011452303268015385
1468443.083,634016541,219.79,103151995,0.050758201628923416,-0.19097904860973358,1510,1510,266.10552978515625,0.010360000655055046
1468543.083,634016541,219.79,103151995,0.05525290220975876,-0.20228689908981323,1510,1510,266.2026672363281,0.008475590497255325
1468643.083,634016540,219.79,103151991,0.04595458507537842,-0.1918829083442688,1510,1510,266.3173828125,0.007109894882887602
1468743.083,634016539,219.79,103151988,0.028005529195070267,-0.181926429271698,1510,1510,266.4085693359375,0.005901654716581106
1468843.083,634016539,219.79,103151988,-0.0007834360003471375,-0.16223222017288208,1510,1510,266.4793395996094,0.004664320964366198
1468943.083,634016538,219.77,103151983,0.0007207255694083869,-0.14354988932609558,1510,1510,266.5107727050781,0.0030393754132092
1469043.083,634016538,219.77,103151983,-0.0024565737694501877,-0.13058243691921234,1510,1510,266.5397644042969,-0.0004832741688005626
1469143.083,634016537,219.77,103151980,0.004910977557301521,-0.1259121596813202,1510,1510,266.5561218261719,-0.003701296169310808
1469243.083,634016537,219.77,103151980,0.006242570001631975,-0.11547711491584778,1510,1510,266.57037353515625,-0.004176120273768902
1469343.083,634016537,219.77,103151976,0.026364609599113464,-0.1262049674987793,1510,1510,266.594482421875,-0.002674961695447564
1469443.083,634016537,219.77,103151976,0.0563809759914875,-0.15652310848236084,1510,1510,266.65313720703125,-0.0005423396360129118
1469543.083,634016537,219.77,103151976,0.05148021876811981,-0.2021373063325882,1510,1510,266.688720703125,0.0003115582512691617
1469643.083,634016536,219.76,103151972,0.031173333525657654,-0.2261286973953247,1510,1510,266.73577880859375,0.001416719052940607
1469743.083,634016534,219.76,103151969,0.01594746671617031,-0.2096862941980362,1510,1510,266.7958068847656,0.0035319530870765448
1469843.083,634016534,219.76,103151969,0.0076421028934419155,-0.1741398274898529,1510,1510,266.8251953125,0.0034157419577240944
1469943.083,634016534,219.77,103151965,-0.0006570059922523797,-0.14578372240066528,1510,1510,266.861083984375,0.0012083938345313072
1470043.083,634016534,219.77,103151965,0.001246579922735691,-0.10150300711393356,1510,1510,266.89605712890625,-0.00176026183180511
1470143.083,634016533,219.76,103151962,0.008059640415012836,-0.09132838994264603,1510,1510,266.92327880859375,-0.0036752948071807623
1470243.083,634016533,219.76,103151962,0.02516850456595421,-0.11084326356649399,1510,1510,266.9666748046875,-0.002891159150749445
1470343.083,634016532,219.76,103151959,0.0358901247382164,-0.15870444476604462,1510,1510,267.02593994140625,0.0009015732211992145
1470443.083,634016532,219.76,103151959,0.04307113587856293,-0.19015832245349884,1510,1510,267.09246826171875,0.004620319698005915
1470543.083,634016532,219.76,103151959,0.0458424836397171,-0.20715168118476868,1510,1510,267.14398193359375,0.005576407536864281
1470643.083,634016531,219.75,103151954,0.034515440464019775,-0.2011120617389679,1510,1510,267.1881103515625,0.0033968170173466206
1470743.083,634016531,219.75,103151950,0.017539970576763153,-0.1860629916191101,1510,1510,267.21533203125,0.0004973363247700036
1470843.083,634016531,219.75,103151950,-0.010119205340743065,-0.15433533489704132,1510,1510,267.2571716308594,-0.001190743176266551
1470943.083,634016530,219.74,103151946,-0.008965406566858292,-0.12666065990924835,1510,1510,267.3226318359375,-0.0003356937668286264
1471043.083,634016530,219.74,103151946,0.005027754232287407,-0.11484789848327637,1510,1510,267.3892822265625,0.001335983513854444
1471143.083,634016529,219.74,103151943,0.038068562746047974,-0.12404204159975052,1510,1510,267.41497802734375,0.0011004344560205936
1471243.083,634016529,219.74,103151943,0.05569251626729965,-0.14057482779026031,1510,1510,267.4285888671875,-0.0004152825567871332
1471343.083,634016528,219.75,103151940,0.060073137283325195,-0.16064006090164185,1510,1510,267.483642578125,-0.0018434824887663126
1471443.083,634016528,219.75,103151940,0.04527464881539345,-0.19167542457580566,1510,1510,267.51983642578125,-0.0030029304325580597
1471543.083,634016528,219.75,103151940,0.017272567376494408,-0.19777871668338776,1510,1510,267.53558349609375,-0.0027046040631830692
1471643.083,634016528,219.75,103151935,-0.004808333702385426,-0.19637884199619293,1510,1510,267.5754089355469,-0.0006557950982823968
1471743.083,634016527,219.75,103151932,0.002802186645567417,-0.177067369222641,1510,1510,267.5920715332031,0.0007524679531343281
1471843.083,634016527,219.75,103151932,-0.0013209147145971656,-0.14313659071922302,1510,1510,267.5924072265625,-0.0006030984222888947
1471943.083,634016526,219.75,103151928,0.002420809119939804,-0.12358423322439194,1510,1510,267.6246337890625,-0.0035250012297183275
1472043.083,634016526,219.75,103151928,0.015738334506750107,-0.1175856739282608,1510,1510,267.63104248046875,-0.005316132679581642
1472143.083,634016526,219.75,103151925,0.036243002861738205,-0.13607370853424072,1510,1510,267.6363830566406,-0.004958567209541798
1472243.083,634016526,219.75,103151925,0.05756892263889313,-0.16213488578796387,1510,1510,267.6566467285156,-0.0033414631616324186
1472343.083,634016525,219.75,103151922,0.057837218046188354,-0.19050714373588562,1510,1510,267.6896057128906,-0.00170597480610013
1472443.083,634016525,219.75,103151922,0.03709233179688454,-0.2117672562599182,1510,1510,267.70001220703125,-0.001333245076239109
1472543.083,634016525,219.75,103151922,-0.000507124699652195,-0.1960701197385788,1510,1510,267.6982116699219,-0.0022063343785703182
1472643.083,634016524,219.76,103151918,-0.021966662257909775,-0.16543009877204895,1510,1510,267.6935729980469,-0.0037348296027630568
1472743.083,634016523,219.76,103151915,-0.024779587984085083,-0.13228380680084229,1510,1510,267.6831359863281,-0.005499743856489658
1472843.083,634016523,219.76,103151915,0.006027608178555965,-0.11653165519237518,1510,1510,267.6578674316406,-0.006858574226498604
1472943.083,634016523,219.76,103151912,0.03625275939702988,-0.12780512869358063,1510,1510,267.6375732421875,-0.006740804295986891
1473043.083,634016523,219.76,103151912,0.059637922793626785,-0.16248822212219238,1510,1510,267.6623229980469,-0.005519140511751175
1473143.083,634016523,219.76,103151909,0.0632871761918068,-0.18344371020793915,1510,1510,267.69061279296875,-0.004324936307966709
1473243.083,634016523,219.76,103151909,0.04694727808237076,-0.19257743656635284,1510,1510,267.6972961425781,-0.003886992111802101
1473343.083,634016522,219.75,103151905,0.006958869285881519,-0.19129809737205505,1510,1510,267.69940185546875,-0.004544650670140982
1473443.083,634016522,219.75,103151905,-0.009337376803159714,-0.17162030935287476,1510,1510,267.6868896484375,-0.0059434594586491585
1473543.083,634016522,219.75,103151905,-0.020061079412698746,-0.144197478890419,1510,1510,267.65887451171875,-0.0073630316182971
1473643.083,634016522,219.76,103151901,-0.000935056246817112,-0.1311292052268982,1510,1510,267.6593322753906,-0.007859015837311745
1473743.083,634016522,219.76,103151899,0.028672948479652405,-0.14126835763454437,1510,1510,267.66790771484375,-0.008068324998021126
1473843.083,634016522,219.76,103151899,0.04909808933734894,-0.16263538599014282,1510,1510,267.6799011230469,-0.006873652338981628
1473943.083,634016521,219.76,103151895,0.05757242813706398,-0.1815280318260193,1510,1510,267.7178649902344,-0.00526224821805954
1474043.083,634016521,219.76,103151895,0.05001135170459747,-0.19040660560131073,1510,1510,267.7349853515625,-0.005262336693704128
1474143.083,634016520,219.76,103151891,0.023544449359178543,-0.17428594827651978,1510,1510,267.7255554199219,-0.006569263059645891
1474243.083,634016520,219.76,103151891,0.003996552433818579,-0.16677549481391907,1510,1510,267.7078552246094,-0.007991477847099304
1474343.083,634016521,219.76,103151888,-0.02035685069859028,-0.15100452303886414,1510,1510,267.7108154296875,-0.009277370758354664
1474443.083,634016521,219.76,103151888,-0.01690918579697609,-0.14724206924438477,1510,1510,267.7083740234375,-0.009325907565653324
1474543.083,634016521,219.76,103151888,0.016350271180272102,-0.1585494875907898,1510,1510,267.71575927734375,-0.009282108396291733
1474643.083,634016520,219.76,103151885,0.04698970913887024,-0.1709441840648651,1510,1510,267.7113952636719,-0.007992304861545563
1474743.083,634016520,219.76,103151881,0.05535577982664108,-0.17202763259410858,1510,1510,267.7030029296875,-0.006987571716308594
1474843.083,634016520,219.76,103151881,0.04999596253037453,-0.1729131042957306,1510,1510,267.64697265625,-0.007513952907174826
1474943.083,634016519,219.76,103151877,0.019438445568084717,-0.1623252034187317,1510,1510,267.5821228027344,-0.009238356724381447
1475043.083,634016519,219.76,103151877,-0.0030513620004057884,-0.15255942940711975,1510,1510,267.5439453125,-0.00893512461334467
1475143.083,634016519,219.77,103151875,-0.00818253681063652,-0.16079668700695038,1510,1510,267.492431640625,-0.009200789034366608
1475243.083,634016519,219.77,103151875,0.0037927706725895405,-0.1580093652009964,1510,1510,267.4644470214844,-0.009384269826114178
1475343.083,634016517,219.77,103151873,0.02642461657524109,-0.16344396770000458,1510,1510,267.44488525390625,-0.009304491803050041
1475443.083,634016517,219.77,103151873,0.03853004053235054,-0.17513257265090942,1510,1510,267.42144775390625,-0.009202023036777973
1475543.083,634016517,219.75,103151869,0.04457222670316696,-0.16743029654026031,1510,1510,267.38958740234375,-0.008814088068902493
1475643.083,634016517,219.75,103151869,0.0346212163567543,-0.15235815942287445,1510,1510,267.3588562011719,-0.008185932412743568
1475743.083,634016515,219.75,103151867,0.014936198480427265,-0.15458311140537262,1510,1510,267.31463623046875,-0.007961849682033062
1475843.083,634016515,219.75,103151867,0.0054727341048419476,-0.1561078131198883,1510,1510,267.2994689941406,-0.007839825935661793
1475943.083,634016515,219.75,103151865,0.010531437583267689,-0.16608458757400513,1510,1510,267.2781677246094,-0.0084887919947505
1476043.083,634016515,219.75,103151865,0.024860961362719536,-0.1637224406003952,1510,1510,267.23773193359375,-0.008756933733820915
1476143.083,634016514,219.74,103151861,0.022939272224903107,-0.17447155714035034,1510,1510,267.2301940917969,-0.009497933089733124
1476243.083,634016514,219.74,103151861,0.023561883717775345,-0.17505638301372528,1510,1510,267.199462890625,-0.009232508018612862
1476343.083,634016513,219.75,103151859,0.022653575986623764,-0.16811995208263397,1510,1510,267.1964111328125,-0.006975732743740082
1476443.083,634016513,219.75,103151859,0.01790511980652809,-0.15953153371810913,1510,1510,267.19342041015625,-0.005481589585542679
1476543.083,634016513,219.75,103151856,0.02148395963013172,-0.1621781587600708,1510,1510,267.21075439453125,-0.005620633251965046
1476643.083,634016513,219.75,103151856,0.025815291330218315,-0.1604781597852707,1510,1510,267.1829833984375,-0.0076592168770730495
1476743.083,634016512,219.74,103151852,0.03090616688132286,-0.17502450942993164,1510,1510,267.1488342285156,-0.009525394067168236
1476843.083,634016512,219.74,103151852,0.03094436600804329,-0.1719597578048706,1510,1510,267.13818359375,-0.010480350814759731
1476943.083,634016512,219.74,103151849,0.013797681778669357,-0.15607993304729462,1510,1510,267.1216735839844,-0.009097950533032417
1477043.083,634016512,219.74,103151849,0.004629318602383137,-0.1530071347951889,1510,1510,267.09588623046875,-0.006355293560773134
1477143.083,634016512,219.75,103151845,0.021427558735013008,-0.15672099590301514,1510,1510,267.1016845703125,-0.0046775625087320805
1477243.083,634016512,219.75,103151845,0.023307394236326218,-0.1543460637331009,1510,1510,267.1048583984375,-0.005450335331261158
1477343.083,634016512,219.75,103151842,0.030105607584118843,-0.17240668833255768,1510,1510,267.1038818359375,-0.007825665175914764
1477443.083,634016512,219.75,103151842,0.02632458135485649,-0.1699592024087906,1510,1510,267.0703430175781,-0.008964857086539268
1477543.083,634016512,219.75,103151838,0.022494681179523468,-0.16446593403816223,1510,1510,267.0588073730469,-0.008563760668039322
1477643.083,634016512,219.75,103151838,0.011941339820623398,-0.16175073385238647,1510,1510,267.0269775390625,-0.007066200952976942
1477743.083,634016512,219.76,103151836,0.008908499032258987,-0.1613812893629074,1510,1510,267.0097961425781,-0.004620366729795933
1477843.083,634016512,219.76,103151836,0.01713826134800911,-0.1608162820339203,1510,1510,267.03546142578125,-0.003313716035336256
1477943.083,634016511,219.76,103151831,0.03503220155835152,-0.16815349459648132,1510,1510,267.0256652832031,-0.003666172968223691
1478043.083,634016511,219.76,103151831,0.04230630025267601,-0.16698117554187775,1510,1510,267.00921630859375,-0.005946958437561989
1478143.083,634016510,219.75,103151828,0.027823343873023987,-0.16628336906433105,1510,1510,266.99432373046875,-0.00852331705391407
1478243.083,634016510,219.75,103151828,0.010667955502867699,-0.16209900379180908,1510,1510,266.9591369628906,-0.008138248696923256
1478343.083,634016510,219.75,103151825,0.007652372121810913,-0.15088795125484467,1510,1510,266.94805908203125,-0.005218302831053734
1478443.083,634016510,219.75,103151825,0.018765036016702652,-0.16165713965892792,1510,1510,266.98907470703125,-0.0017612706869840622
1478543.083,634016511,219.77,103151821,0.028160791844129562,-0.17039453983306885,1510,1510,267.0027770996094,-0.0011994843371212482
1478643.083,634016511,219.77,103151821,0.034519266337156296,-0.17547473311424255,1510,1510,266.959228515625,-0.0032489437144249678
1478743.083,634016511,219.78,103151818,0.020355086773633957,-0.16328366100788116,1510,1510,266.93804931640625,-0.00546847190707922
1478843.083,634016511,219.78,103151818,0.02420998364686966,-0.16903577744960785,1510,1510,266.9336853027344,-0.006114718969911337
1478943.083,634016511,219.77,103151814,0.015807636082172394,-0.15295684337615967,1510,1510,266.9131164550781,-0.00525388028472662
1479043.083,634016511,219.77,103151814,0.019645322114229202,-0.1543789952993393,1510,1510,266.89263916015625,-0.0031613579485565424
1479143.083,634016510,219.77,103151811,0.017398275434970856,-0.1489676833152771,1510,1510,266.89794921875,-0.0006886250921525061
1479243.083,634016510,219.77,103151811,0.029395779594779015,-0.159723162651062,1510,1510,266.9213562011719,0.0002439893432892859
1479343.083,634016511,219.77,103151807,0.03583783656358719,-0.165298730134964,1510,1510,266.9356384277344,-0.0009992094710469246
1479443.083,634016511,219.77,103151807,0.025640202686190605,-0.17158663272857666,1510,1510,266.9526672363281,-0.002631212119013071
1479543.083,634016511,219.77,103151807,0.021795250475406647,-0.16216832399368286,1510,1510,266.9377136230469,-0.0034488921519368887
1479643.083,634016510,219.76,103151804,0.004978241864591837,-0.16271436214447021,1510,1510,266.9494934082031,-0.0017349902773275971
1479743.083,634016509,219.75,103151801,0.004067218862473965,-0.16318081319332123,1510,1510,266.98834228515625,0.002236765343695879
1479843.083,634016509,219.75,103151801,0.014731142669916153,-0.17470060288906097,1510,1510,267.05059814453125,0.005282270256429911
1479943.083,634016509,219.75,103151797,0.03238557651638985,-0.17619547247886658,1510,1510,267.075439453125,0.005043200217187405
1480043.083,634016509,219.75,103151797,0.032063066959381104,-0.16679824888706207,1510,1510,267.11480712890625,0.0017876996425911784
1480143.083,634016510,219.76,103151792,0.02696058712899685,-0.1585031896829605,1510,1510,267.1158447265625,-0.00046766601735726
1480243.083,634016510,219.76,103151792,0.007885297760367393,-0.15126295387744904,1510,1510,267.1460876464844,0.00033123523462563753
1480343.083,634016510,219.77,103151788,0.025192096829414368,-0.15814809501171112,1510,1510,267.1957702636719,0.003590877167880535
1480443.083,634016510,219.77,103151788,0.019897479563951492,-0.15018855035305023,1510,1510,267.22991943359375,0.005510205868631601
1480543.083,634016510,219.77,103151788,0.02791660465300083,-0.14812976121902466,1510,1510,267.2644348144531,0.00665734987705946
1480643.083,634016509,219.76,103151785,0.022023633122444153,-0.1492418795824051,1510,1510,267.30548095703125,0.005949586629867554
1480743.083,634016510,219.77,103151782,0.03234589099884033,-0.1697474718093872,1510,1510,267.3294982910156,0.005069228354841471
1480843.083,634016510,219.77,103151782,0.017274493351578712,-0.16650162637233734,1510,1510,267.3770751953125,0.005294097121804953
1480943.083,634016510,219.76,103151779,0.010323713533580303,-0.15866030752658844,1510,1510,267.4471435546875,0.007316242437809706
1481043.083,634016510,219.76,103151779,0.013033672235906124,-0.15733687579631805,1510,1510,267.5319519042969,0.01036853902041912
1481143.083,634016510,219.76,103151775,0.013523050583899021,-0.16420099139213562,1510,1510,267.6148986816406,0.011888446286320686
1481243.083,634016510,219.76,103151775,0.026775525882840157,-0.16504251956939697,1510,1510,267.72979736328125,0.012016067281365395
1481343.083,634016509,219.75,103151773,0.023751527070999146,-0.16343890130519867,1510,1510,267.7991943359375,0.011112775653600693
1481443.083,634016509,219.75,103151773,0.026646142825484276,-0.163675457239151,1510,1510,267.8832702636719,0.010144560597836971
1481543.083,634016509,219.75,103151773,0.0224174652248621,-0.16735702753067017,1510,1510,267.94287109375,0.009770559147000313
1481643.083,634016509,219.76,103151769,0.021050769835710526,-0.15904457867145538,1510,1510,268.00567626953125,0.010981887578964233
1481743.083,634016510,219.77,103151765,0.0178514514118433,-0.15695257484912872,1510,1510,268.094970703125,0.012066208757460117
1481843.083,634016510,219.77,103151765,0.020585697144269943,-0.15772496163845062,1510,1510,268.1827392578125,0.013424190692603588
1481943.083,634016510,219.77,103151763,0.03718046844005585,-0.15483376383781433,1510,1510,268.28369140625,0.01320590265095234
1482043.083,634016510,219.77,103151763,0.020347224548459053,-0.1519213616847992,1510,1510,268.3291015625,0.011966520920395851
1482143.083,634016509,219.76,103151760,0.015724407508969307,-0.14632026851177216,1510,1510,268.3827209472656,0.011731396429240704
1482243.083,634016509,219.76,103151760,0.01025527436286211,-0.15638738870620728,1510,1510,268.466064453125,0.013167038559913635
1482343.083,634016510,219.76,103151756,0.024561524391174316,-0.16145208477973938,1510,1510,268.5261535644531,0.014738881029188633
1482443.083,634016510,219.76,103151756,0.021619006991386414,-0.1635981798171997,1510,1510,268.61236572265625,0.015263409353792667
1482543.083,634016510,219.76,103151756,0.020320041105151176,-0.17101043462753296,1510,1510,268.7176513671875,0.016089878976345062
1482643.083,634016510,219.77,103151753,0.024131592363119125,-0.18249595165252686,1510,1510,268.81103515625,0.01664523407816887
1482743.083,634016510,219.78,103151749,0.027630945667624474,-0.17619778215885162,1510,1510,268.9219055175781,0.01699700765311718
1482843.083,634016510,219.78,103151749,0.02111710049211979,-0.17495381832122803,1510,1510,269.01708984375,0.017002221196889877
1482943.083,634016511,219.78,103151746,0.026914343237876892,-0.17066144943237305,1510,1510,269.10296630859375,0.016341736540198326
1483043.083,634016511,219.78,103151746,0.014748875051736832,-0.15717265009880066,1510,1510,269.21356201171875,0.016415897756814957
1483143.083,634016511,219.78,103151742,0.020361177623271942,-0.15058787167072296,1510,1510,269.31475830078125,0.016500849276781082
1483243.083,634016511,219.78,103151742,0.024349242448806763,-0.1435290277004242,1510,1510,269.42388916015625,0.01719200238585472
1483343.083,634016512,219.79,103151738,0.020579585805535316,-0.13870035111904144,1510,1510,269.5054931640625,0.017286891117691994
1483443.083,634016512,219.79,103151738,0.02085547149181366,-0.1351695954799652,1510,1510,269.59857177734375,0.016459060832858086
1483543.083,634016512,219.79,103151738,0.0264606811106205,-0.15634018182754517,1510,1510,269.7001037597656,0.016605177894234657
1483643.083,634016512,219.8,103151735,0.0262271910905838,-0.17144909501075745,1510,1510,269.83673095703125,0.017991142347455025
1483743.083,634016512,219.78,103151731,0.019062479957938194,-0.17348971962928772,1510,1510,269.97271728515625,0.02028094045817852
1483843.083,634016512,219.78,103151731,0.019196677953004837,-0.1867939829826355,1510,1510,270.10125732421875,0.021891795098781586
1483943.083,634016512,219.8,103151729,0.026140933856368065,-0.1873500794172287,1510,1510,270.2391662597656,0.021770233288407326
1484043.083,634016512,219.8,103151729,0.020795099437236786,-0.18911218643188477,1510,1510,270.3802795410156,0.021641729399561882
1484143.083,634016514,219.8,103151724,0.01834835484623909,-0.17436130344867706,1510,1510,270.49603271484375,0.021580560132861137
1484243.083,634016514,219.8,103151724,0.015861153602600098,-0.15329857170581818,1510,1510,270.614013671875,0.021302755922079086
1484343.083,634016514,219.8,103151721,0.02075405791401863,-0.15069638192653656,1510,1510,270.7192077636719,0.020357253029942513
1484443.083,634016514,219.8,103151721,0.030461223796010017,-0.1431097686290741,1510,1510,270.83209228515625,0.019688952714204788
1484543.083,634016514,219.8,103151721,0.01950865238904953,-0.13877901434898376,1510,1510,270.9600830078125,0.019725250080227852
1484643.083,634016515,219.8,103151718,0.02501806430518627,-0.14196527004241943,1510,1510,271.07537841796875,0.02099274843931198
1484743.083,634016515,219.81,103151714,0.01873764954507351,-0.15392480790615082,1510,1510,271.195556640625,0.022275367751717567
1484843.083,634016515,219.81,103151714,0.029182294383645058,-0.16975627839565277,1510,1510,271.32098388671875,0.02288680709898472
1484943.083,634016515,219.81,103151711,0.016605118289589882,-0.17626208066940308,1510,1510,271.46484375,0.02336794137954712
1485043.083,634016515,219.81,103151711,0.019493430852890015,-0.17958486080169678,1510,1510,271.5975036621094,0.02423262968659401
1485143.083,634016515,219.81,103151708,0.021613331511616707,-0.18841955065727234,1510,1510,271.7381591796875,0.025179754942655563
1485243.083,634016515,219.81,103151708,0.025724001228809357,-0.17759254574775696,1510,1510,271.8601379394531,0.024799328297376633
1485343.083,634016516,219.81,103151704,0.02847037836909294,-0.16715866327285767,1510,1510,271.9993591308594,0.02402370609343052
1485443.083,634016516,219.81,103151704,0.023193787783384323,-0.15159399807453156,1510,1510,272.1488037109375,0.024239007383584976
1485543.083,634016517,219.81,103151702,0.033132895827293396,-0.14811834692955017,1510,1510,272.3000793457031,0.024116799235343933
1485643.083,634016517,219.81,103151702,0.0256333090364933,-0.1478685438632965,1510,1510,272.4384765625,0.023816583678126335
1485743.083,634016517,219.8,103151698,0.018289687111973763,-0.14142578840255737,1510,1510,272.5735168457031,0.02335217408835888
1485843.083,634016517,219.8,103151698,0.009714321233332157,-0.15377511084079742,1510,1510,272.699462890625,0.02359631657600403
1485943.083,634016517,219.81,103151696,0.01571069099009037,-0.15689148008823395,1510,1510,272.8481140136719,0.024763286113739014
1486043.083,634016517,219.81,103151696,0.024422727525234222,-0.16502231359481812,1510,1510,273.0019836425781,0.025875519961118698
1486143.083,634016518,219.81,103151691,0.03687930852174759,-0.17683374881744385,1510,1510,273.1688232421875,0.02632606029510498
1486243.083,634016518,219.81,103151691,0.03269730508327484,-0.17447783052921295,1510,1510,273.32427978515625,0.026332782581448555
1486343.083,634016518,219.82,103151688,0.02362850308418274,-0.17296172678470612,1510,1510,273.49444580078125,0.02686908096075058
1486443.083,634016518,219.82,103151688,0.02413412742316723,-0.17047996819019318,1510,1510,273.6488037109375,0.027529731392860413
1486543.083,634016518,219.82,103151688,0.018436597660183907,-0.16748009622097015,1510,1510,273.806884765625,0.027145866304636
1486643.083,634016520,219.82,103151684,0.020429113879799843,-0.15794086456298828,1510,1510,273.9583740234375,0.026274321600794792
1486743.083,634016520,219.82,103151681,0.023442445322871208,-0.15262562036514282,1510,1510,274.1112060546875,0.025723986327648163
1486843.083,634016520,219.82,103151681,0.024375054985284805,-0.15037298202514648,1510,1510,274.2619323730469,0.02517271414399147
1486943.083,634016521,219.83,103151678,0.02708454057574272,-0.15126121044158936,1510,1510,274.3992004394531,0.025184189900755882
1487043.083,634016521,219.83,103151678,0.03179099038243294,-0.15207260847091675,1510,1510,274.5637512207031,0.025826457887887955
1487143.083,634016522,219.83,103151676,0.02549763396382332,-0.1603846251964569,1510,1510,274.7152099609375,0.02648148499429226
1487243.083,634016522,219.83,103151676,0.027218138799071312,-0.16927145421504974,1510,1510,274.8841247558594,0.026782285422086716
1487343.083,634016523,219.83,103151673,0.013201531954109669,-0.18227630853652954,1510,1510,275.042236328125,0.027831459417939186
1487443.083,634016523,219.83,103151673,0.014056982472538948,-0.17869988083839417,1510,1510,275.22100830078125,0.02897668443620205
1487543.083,634016524,219.84,103151670,0.024631185457110405,-0.1820560097694397,1510,1510,275.3952941894531,0.029399249702692032
1487643.083,634016524,219.84,103151670,0.03261450678110123,-0.16836407780647278,1510,1510,275.5841064453125,0.028057899326086044
1487743.083,634016524,219.85,103151667,0.030213188380002975,-0.1589667648077011,1510,1510,275.74993896484375,0.02630096673965454
1487843.083,634016524,219.85,103151667,0.032298363745212555,-0.14053502678871155,1510,1510,275.9117126464844,0.0259143877774477
1487943.083,634016525,219.85,103151664,0.03650125488638878,-0.13902029395103455,1510,1510,276.08203125,0.026354460045695305
1488043.083,634016525,219.85,103151664,0.02749696373939514,-0.14209800958633423,1510,1510,276.2351989746094,0.027143672108650208
1488143.083,634016526,219.85,103151661,0.0209074467420578,-0.15770484507083893,1510,1510,276.3858642578125,0.027048271149396896
1488243.083,634016526,219.85,103151661,0.0033808753360062838,-0.1698734313249588,1510,1510,276.53289794921875,0.027852797880768776
1488343.083,634016526,219.87,103151659,0.01611052080988884,-0.1838316023349762,1510,1510,276.67364501953125,0.029177242890000343
1488443.083,634016526,219.87,103151659,0.02519374154508114,-0.18516656756401062,1510,1510,276.8277282714844,0.029501833021640778
1488543.083,634016526,219.87,103151659,0.036950502544641495,-0.18088793754577637,1510,1510,276.9803466796875,0.028579341247677803
1488643.083,634016528,219.88,103151656,0.02508869208395481,-0.16765637695789337,1510,1510,277.1397399902344,0.02728772722184658
1488743.083,634016529,219.88,103151653,0.03406698256731033,-0.1539342850446701,1510,1510,277.313232421875,0.027445320039987564
1488843.083,634016529,219.88,103151653,0.03040211647748947,-0.149180069565773,1510,1510,277.48101806640625,0.027225878089666367
1488943.083,634016529,219.89,103151650,0.02328990027308464,-0.14085227251052856,1510,1510,277.6380615234375,0.02682197093963623
1489043.083,634016529,219.89,103151650,0.01261119358241558,-0.15360316634178162,1510,1510,277.775390625,0.027005210518836975
1489143.083,634016530,219.89,103151648,0.0036933147348463535,-0.1525106430053711,1510,1510,277.9499816894531,0.026990020647644997
1489243.083,634016530,219.89,103151648,0.009586394764482975,-0.1627604216337204,1510,1510,278.10986328125,0.02733629010617733
1489343.083,634016530,219.9,103151645,0.024965796619653702,-0.17027130722999573,1510,1510,278.2616882324219,0.027699865400791168
1489443.083,634016530,219.9,103151645,0.036798954010009766,-0.17314022779464722,1510,1510,278.4094543457031,0.02816486358642578
1489543.083,634016530,219.9,103151645,0.0337316058576107,-0.17979812622070312,1510,1510,278.55584716796875,0.027868106961250305
1489643.083,634016531,219.9,103151642,0.03164224326610565,-0.17529401183128357,1510,1510,278.7094421386719,0.027677373960614204
1489743.083,634016533,219.9,103151639,0.02994382567703724,-0.17145435512065887,1510,1510,278.847412109375,0.026535382494330406
1489843.083,634016533,219.9,103151639,0.017241541296243668,-0.16019168496131897,1510,1510,278.9679870605469,0.02654738910496235
1489943.083,634016533,219.9,103151636,0.018784228712320328,-0.14005394279956818,1510,1510,279.11505126953125,0.027002114802598953
1490043.083,634016533,219.9,103151636,0.016142209991812706,-0.1493813544511795,1510,1510,279.2568664550781,0.026523374021053314
1490143.083,634016534,219.9,103151633,0.02136405184864998,-0.14723998308181763,1510,1510,279.37890625,0.026161806657910347
1490243.083,634016534,219.9,103151633,0.025404401123523712,-0.14957581460475922,1510,1510,279.5086669921875,0.025969892740249634
1490343.083,634016535,219.89,103151631,0.020138129591941833,-0.16723737120628357,1510,1510,279.6369934082031,0.02605261281132698
1490443.083,634016535,219.89,103151631,0.03215039521455765,-0.1797918975353241,1510,1510,279.77423095703125,0.026358328759670258
1490543.083,634016535,219.89,103151631,0.025001786649227142,-0.1873643696308136,1510,1510,279.89483642578125,0.02627032995223999
1490643.083,634016536,219.89,103151627,0.03237676993012428,-0.17562276124954224,1510,1510,280.02337646484375,0.025990743190050125
1490743.083,634016536,219.89,103151625,0.026615116745233536,-0.1622784435749054,1510,1510,280.16351318359375,0.025933608412742615
1490843.083,634016536,219.89,103151625,0.04088591784238815,-0.1533273607492447,1510,1510,280.30010986328125,0.026043502613902092
1490943.083,634016536,219.89,103151622,0.02514006942510605,-0.14842653274536133,1510,1510,280.4150085449219,0.02553614228963852
1491043.083,634016536,219.89,103151622,0.023494992405176163,-0.15031899511814117,1510,1510,280.53533935546875,0.023999452590942383
1491143.083,634016537,219.89,103151619,0.012283588759601116,-0.1519036591053009,1510,1510,280.6593933105469,0.022934863343834877
1491243.083,634016537,219.89,103151619,0.014617349952459335,-0.1674000322818756,1510,1510,280.7817077636719,0.02331100031733513
1491343.083,634016537,219.89,103151617,0.016194269061088562,-0.1777763068675995,1510,1510,280.9106140136719,0.02479907125234604
1491443.083,634016537,219.89,103151617,0.029955554753541946,-0.1685095578432083,1510,1510,281.0517272949219,0.026533305644989014
1491543.083,634016537,219.89,103151617,0.03077937290072441,-0.17121070623397827,1510,1510,281.1894836425781,0.02632080391049385
1491643.083,634016538,219.88,103151613,0.03759441524744034,-0.1601933389902115,1510,1510,281.33636474609375,0.02501821517944336
1491743.083,634016538,219.89,103151612,0.037219882011413574,-0.15080751478672028,1510,1510,281.4722595214844,0.023595774546265602
1491843.083,634016538,219.89,103151612,0.02553713321685791,-0.15358975529670715,1510,1510,281.57562255859375,0.02213001810014248
1491943.083,634016538,219.89,103151609,0.020275749266147614,-0.1591166853904724,1510,1510,281.68475341796875,0.021651195362210274
1492043.083,634016538,219.89,103151609,0.013231730088591576,-0.1535753607749939,1510,1510,281.8050537109375,0.022001046687364578
1492143.083,634016538,219.89,103151607,0.009811535477638245,-0.16494980454444885,1510,1510,281.9222717285156,0.02329603023827076
1492243.083,634016538,219.89,103151607,0.019707441329956055,-0.1719580441713333,1510,1510,282.049072265625,0.02524528093636036
1492343.083,634016539,219.88,103151604,0.03286292031407356,-0.1654973030090332,1510,1510,282.16949462890625,0.0249283816665411
1492443.083,634016539,219.88,103151604,0.03571591526269913,-0.16895335912704468,1510,1510,282.279296875,0.02340526692569256
1492543.083,634016539,219.88,103151604,0.030241645872592926,-0.17408150434494019,1510,1510,282.4103088378906,0.02165752649307251
1492643.083,634016539,219.89,103151602,0.02378336898982525,-0.16106460988521576,1510,1510,282.54681396484375,0.020762089639902115
1492743.083,,,,0.014113545417785645,-0.1543845534324646,1510,1510,282.67236328125,0.02107962965965271