timestamp(ms),GPS.Lat,GPS.Alt,GPS.Lng,IMU.AccX,IMU.AccY,RCOU.C1,RCOU.C3,DCM.Yaw,IMU.GyrZ
2738642.826,634014986,220.01,103146182,0.044866133481264114,-0.16981878876686096,1510,1510,188.68521118164062,-0.017756175249814987
2738742.826,634014986,220.01,103146182,0.0347435437142849,-0.150276780128479,1510,1510,188.5589599609375,-0.019929327070713043
2738842.826,634014985,220.01,103146182,0.01923968270421028,-0.1526508331298828,1510,1510,188.44415283203125,-0.020227372646331787
2738942.826,634014985,220.01,103146182,0.006055982783436775,-0.15783578157424927,1510,1510,188.34690856933594,-0.01751571334898472
2739042.826,634014985,220.01,103146181,0.014670398086309433,-0.17533579468727112,1510,1510,188.2823944091797,-0.014819124713540077
2739142.826,634014985,220.01,103146181,0.029681488871574402,-0.18514026701450348,1510,1510,188.22483825683594,-0.013243578374385834
2739242.826,634014985,220.02,103146180,0.04733864963054657,-0.1772182583808899,1510,1510,188.13595581054688,-0.014543216675519943
2739342.826,634014985,220.02,103146180,0.051039889454841614,-0.16686946153640747,1510,1510,188.0595245361328,-0.017353959381580353
2739442.826,634014984,220.02,103146179,0.034918252378702164,-0.15869677066802979,1510,1510,187.93777465820312,-0.019970033317804337
2739542.826,634014984,220.02,103146179,0.01611098274588585,-0.14925937354564667,1510,1510,187.82736206054688,-0.019716430455446243
2739642.826,634014985,220.02,103146179,0.006047612056136131,-0.15718036890029907,1510,1510,187.7257537841797,-0.017135223373770714
2739742.826,634014985,220.02,103146179,0.014367686584591866,-0.16844770312309265,1510,1510,187.66075134277344,-0.013903016224503517
2739842.826,634014984,220.02,103146178,0.030272487550973892,-0.17237205803394318,1510,1510,187.61013793945312,-0.012530148029327393
2739942.826,634014984,220.02,103146178,0.04750019311904907,-0.17769204080104828,1510,1510,187.5496826171875,-0.014063095673918724
2740042.826,634014983,220.02,103146177,0.04585131257772446,-0.16130053997039795,1510,1510,187.47906494140625,-0.017242366448044777
2740142.826,634014983,220.02,103146177,0.03440626338124275,-0.15374824404716492,1510,1510,187.3823699951172,-0.02010188437998295
2740242.826,634014984,220.02,103146176,0.013163844123482704,-0.15523409843444824,1510,1510,187.322509765625,-0.01926763914525509
2740342.826,634014984,220.02,103146176,0.008267505094408989,-0.16548755764961243,1510,1510,187.2473602294922,-0.015819478780031204
2740442.826,634014983,220.03,103146176,0.017244018614292145,-0.17536312341690063,1510,1510,187.16212463378906,-0.012311256490647793
2740542.826,634014983,220.03,103146176,0.035623885691165924,-0.17844685912132263,1510,1510,187.09188842773438,-0.011619305238127708
2740642.826,634014983,220.02,103146175,0.055508241057395935,-0.16939567029476166,1510,1510,186.99505615234375,-0.013829052448272705
2740742.826,634014983,220.02,103146175,0.04600435867905617,-0.15729855000972748,1510,1510,186.88417053222656,-0.017742017284035683
2740842.826,634014982,220.03,103146174,0.023638863116502762,-0.15461814403533936,1510,1510,186.7715301513672,-0.01972305029630661
2740942.826,634014982,220.03,103146174,0.006842214614152908,-0.15413826704025269,1510,1510,186.66342163085938,-0.018594248220324516
2741042.826,634014982,220.04,103146173,0.007455103565007448,-0.16137774288654327,1510,1510,186.58905029296875,-0.01477141585201025
2741142.826,634014982,220.04,103146173,0.02532835304737091,-0.171908438205719,1510,1510,186.5205535888672,-0.011467809788882732
2741242.826,634014982,220.04,103146172,0.039161067456007004,-0.17326529324054718,1510,1510,186.4705810546875,-0.011187857948243618
2741342.826,634014982,220.04,103146172,0.05501030385494232,-0.17012949287891388,1510,1510,186.40802001953125,-0.01409350149333477
2741442.826,634014982,220.04,103146172,0.04754379764199257,-0.1665372997522354,1510,1510,186.33338928222656,-0.018088556826114655
2741542.826,634014982,220.04,103146172,0.017087601125240326,-0.15410158038139343,1510,1510,186.224609375,-0.019541161134839058
2741642.826,634014981,220.05,103146170,0.0031628410797566175,-0.1612672358751297,1510,1510,186.12916564941406,-0.01704365760087967
2741742.826,634014981,220.05,103146170,0.00577889708802104,-0.17365874350070953,1510,1510,186.06068420410156,-0.013054369017481804
2741842.826,634014981,220.06,103146170,0.027630198746919632,-0.1692015826702118,1510,1510,185.97360229492188,-0.010533273220062256
2741942.826,634014981,220.06,103146170,0.04976951330900192,-0.17308685183525085,1510,1510,185.89434814453125,-0.01141927670687437
2742042.826,634014981,220.06,103146169,0.05474071204662323,-0.16227564215660095,1510,1510,185.817626953125,-0.014986313879489899
2742142.826,634014981,220.06,103146169,0.03514321520924568,-0.15886184573173523,1510,1510,185.734375,-0.018616773188114166
2742242.826,634014981,220.07,103146169,0.01081251259893179,-0.15915782749652863,1510,1510,185.64190673828125,-0.019067605957388878
2742342.826,634014981,220.07,103146169,-0.0038331227842718363,-0.16701337695121765,1510,1510,185.5394287109375,-0.015445906668901443
2742442.826,634014981,220.07,103146168,0.01749131828546524,-0.1686149537563324,1510,1510,185.48277282714844,-0.011355828493833542
2742542.826,634014981,220.07,103146168,0.03633911907672882,-0.16945254802703857,1510,1510,185.42196655273438,-0.00971906166523695
2742642.826,634014981,220.08,103146169,0.05824963003396988,-0.1610327810049057,1510,1510,185.34642028808594,-0.011999504640698433
2742742.826,634014981,220.08,103146169,0.04594187065958977,-0.1636815220117569,1510,1510,185.26515197753906,-0.01650221087038517
2742842.826,634014980,220.08,103146167,0.02217496559023857,-0.16099044680595398,1510,1510,185.18194580078125,-0.01893736980855465
2742942.826,634014980,220.08,103146167,-0.008717796765267849,-0.1613953411579132,1510,1510,185.1057891845703,-0.01707509160041809
2743042.826,634014980,220.08,103146167,0.010386944748461246,-0.1653338074684143,1510,1510,185.0459442138672,-0.013302936218678951
2743142.826,634014980,220.08,103146167,0.028140578418970108,-0.16899873316287994,1510,1510,184.99465942382812,-0.010158948600292206
2743242.826,634014980,220.09,103146166,0.05294429510831833,-0.16568869352340698,1510,1510,184.94007873535156,-0.01034560240805149
2743342.826,634014980,220.09,103146166,0.04832343012094498,-0.16583552956581116,1510,1510,184.86318969726562,-0.01362511795014143
2743442.826,634014979,220.09,103146166,0.029967110604047775,-0.16393908858299255,1510,1510,184.75765991210938,-0.01756526157259941
2743542.826,634014979,220.09,103146166,0.005303213372826576,-0.16585516929626465,1510,1510,184.670654296875,-0.018235832452774048
2743642.826,634014979,220.1,103146166,-0.0016214554198086262,-0.1681044101715088,1510,1510,184.60726928710938,-0.015033034607768059
2743742.826,634014979,220.1,103146166,0.019938860088586807,-0.16955983638763428,1510,1510,184.56295776367188,-0.010926604270935059
2743842.826,634014979,220.11,103146165,0.04441184550523758,-0.16948610544204712,1510,1510,184.516845703125,-0.008961517363786697
2743942.826,634014979,220.11,103146165,0.054335299879312515,-0.15598689019680023,1510,1510,184.44834899902344,-0.011439869180321693
2744042.826,634014979,220.1,103146164,0.038775596767663956,-0.16303855180740356,1510,1510,184.35926818847656,-0.015297852456569672
2744142.826,634014979,220.1,103146164,0.01880797930061817,-0.15838442742824554,1510,1510,184.24964904785156,-0.017513342201709747
2744242.826,634014979,220.11,103146163,-0.001979685854166746,-0.16998165845870972,1510,1510,184.16806030273438,-0.015907619148492813
2744342.826,634014979,220.11,103146163,0.012575044296681881,-0.17281298339366913,1510,1510,184.1022186279297,-0.012082276865839958
2744442.826,634014979,220.12,103146163,0.03676800802350044,-0.16882754862308502,1510,1510,184.0384521484375,-0.009343745186924934
2744542.826,634014979,220.12,103146163,0.04563816636800766,-0.16041815280914307,1510,1510,183.96775817871094,-0.010043795220553875
2744642.826,634014979,220.12,103146162,0.04669412225484848,-0.15617451071739197,1510,1510,183.86669921875,-0.013113823719322681
2744742.826,634014979,220.12,103146162,0.026507560163736343,-0.16436809301376343,1510,1510,183.75588989257812,-0.015461288392543793
2744842.826,634014978,220.1,103146162,0.007747041527181864,-0.16803713142871857,1510,1510,183.6741485595703,-0.015362795442342758
2744942.826,634014978,220.1,103146162,0.009158874861896038,-0.17185723781585693,1510,1510,183.60577392578125,-0.012781372293829918
2745042.826,634014978,220.13,103146161,0.03317447379231453,-0.16929149627685547,1510,1510,183.550048828125,-0.010195411741733551
2745142.826,634014978,220.13,103146161,0.042644429951906204,-0.15512727200984955,1510,1510,183.50048828125,-0.010203467682003975
2745242.826,634014978,220.13,103146161,0.04730847477912903,-0.15862785279750824,1510,1510,183.4042510986328,-0.01198236458003521
2745342.826,634014978,220.13,103146161,0.02270703762769699,-0.1556137502193451,1510,1510,183.294921875,-0.013958020135760307
2745442.826,634014978,220.14,103146160,0.010845900513231754,-0.16843321919441223,1510,1510,183.2028350830078,-0.014320384711027145
2745542.826,634014978,220.14,103146160,0.020648160949349403,-0.1778756082057953,1510,1510,183.11904907226562,-0.012545228004455566
2745642.826,634014978,220.15,103146159,0.030093692243099213,-0.17652037739753723,1510,1510,183.04400634765625,-0.010738218203186989
2745742.826,634014978,220.15,103146159,0.04084373265504837,-0.16155031323432922,1510,1510,182.97152709960938,-0.010242661461234093
2745842.826,634014978,220.16,103146159,0.03549407795071602,-0.15636134147644043,1510,1510,182.9052276611328,-0.011526885442435741
2745942.826,634014978,220.16,103146159,0.02236058935523033,-0.15628132224082947,1510,1510,182.81190490722656,-0.012677098624408245
2746042.826,634014978,220.16,103146158,0.01991438679397106,-0.16795410215854645,1510,1510,182.7157440185547,-0.012672076001763344
2746142.826,634014978,220.16,103146158,0.028038013726472855,-0.17637889087200165,1510,1510,182.63877868652344,-0.011409418657422066
2746242.826,634014979,220.17,103146157,0.03088947758078575,-0.17310118675231934,1510,1510,182.5616912841797,-0.010580137372016907
2746342.826,634014979,220.17,103146157,0.040060728788375854,-0.15671353042125702,1510,1510,182.48240661621094,-0.010860702022910118
2746442.826,634014979,220.17,103146157,0.028433239087462425,-0.15441381931304932,1510,1510,182.40380859375,-0.011666789650917053
2746542.826,634014979,220.17,103146157,0.017212126404047012,-0.16369321942329407,1510,1510,182.3358917236328,-0.012209782376885414
2746642.826,634014979,220.19,103146156,0.012938819825649261,-0.17623144388198853,1510,1510,182.28343200683594,-0.01129954308271408
2746742.826,634014979,220.19,103146156,0.01831362023949623,-0.17944283783435822,1510,1510,182.21788024902344,-0.009878481738269329
2746842.826,634014979,220.19,103146156,0.0345633327960968,-0.16996410489082336,1510,1510,182.14712524414062,-0.00974659901112318
2746942.826,634014979,220.19,103146156,0.04569318890571594,-0.15796223282814026,1510,1510,182.07034301757812,-0.010787591338157654
2747042.826,634014979,220.2,103146156,0.03382790461182594,-0.14700570702552795,1510,1510,181.99111938476562,-0.012021380476653576
2747142.826,634014979,220.2,103146156,0.02245289273560047,-0.15818607807159424,1510,1510,181.9127960205078,-0.011824079789221287
2747242.826,634014980,220.22,103146155,0.012337293475866318,-0.17100143432617188,1510,1510,181.84243774414062,-0.010405151173472404
2747342.826,634014980,220.22,103146155,0.025511665269732475,-0.17769703269004822,1510,1510,181.77818298339844,-0.008541610091924667
2747442.826,634014980,220.22,103146154,0.034321825951337814,-0.16607585549354553,1510,1510,181.7286376953125,-0.008581709116697311
2747542.826,634014980,220.22,103146154,0.0458793044090271,-0.16729244589805603,1510,1510,181.65879821777344,-0.009772883728146553
2747642.826,634014980,220.22,103146153,0.03539499640464783,-0.15203529596328735,1510,1510,181.57394409179688,-0.011617835611104965
2747742.826,634014980,220.22,103146153,0.016972972080111504,-0.16039997339248657,1510,1510,181.49154663085938,-0.01178964413702488
2747842.826,634014980,220.22,103146153,0.015955552458763123,-0.17889189720153809,1510,1510,181.4255828857422,-0.01001274585723877
2747942.826,634014980,220.22,103146153,0.025088530033826828,-0.17029103636741638,1510,1510,181.37615966796875,-0.007830819115042686
2748042.826,634014980,220.23,103146151,0.034887511283159256,-0.16429494321346283,1510,1510,181.33445739746094,-0.007339185103774071
2748142.826,634014980,220.23,103146151,0.0439978651702404,-0.15698683261871338,1510,1510,181.28599548339844,-0.009367243386805058
2748242.826,634014980,220.24,103146151,0.025947628542780876,-0.15894003212451935,1510,1510,181.23818969726562,-0.011268268339335918
2748342.826,634014980,220.24,103146151,0.012493455782532692,-0.1676378697156906,1510,1510,181.2039794921875,-0.011423857882618904
2748442.826,634014981,220.25,103146150,0.011577669531106949,-0.1772114634513855,1510,1510,181.16964721679688,-0.009204735048115253
2748542.826,634014981,220.25,103146150,0.024120165035128593,-0.17676979303359985,1510,1510,181.12892150878906,-0.006553421262651682
2748642.826,634014981,220.26,103146148,0.0425097793340683,-0.16745945811271667,1510,1510,181.08319091796875,-0.00656272703781724
2748742.826,634014981,220.26,103146148,0.038295380771160126,-0.1483263224363327,1510,1510,181.02206420898438,-0.009054210968315601
2748842.826,634014982,220.28,103146146,0.028435854241251945,-0.1545046716928482,1510,1510,180.95298767089844,-0.011017987504601479
2748942.826,634014982,220.28,103146146,0.013971417210996151,-0.169881671667099,1510,1510,180.90591430664062,-0.010559284128248692
2749042.826,634014983,220.3,103146145,0.014524555765092373,-0.17816294729709625,1510,1510,180.89691162109375,-0.008214306086301804
2749142.826,634014983,220.3,103146145,0.02198154665529728,-0.1696966141462326,1510,1510,180.8887481689453,-0.005987636744976044
2749242.826,634014984,220.3,103146143,0.04416956752538681,-0.15375863015651703,1510,1510,180.86715698242188,-0.006613940931856632
2749342.826,634014984,220.3,103146143,0.03862184286117554,-0.15077176690101624,1510,1510,180.83566284179688,-0.008815096691250801
2749442.826,634014985,220.32,103146140,0.027202636003494263,-0.15758299827575684,1510,1510,180.79708862304688,-0.010432443581521511
2749542.826,634014985,220.32,103146140,0.003033811692148447,-0.17179562151432037,1510,1510,180.76766967773438,-0.009665985591709614
2749642.826,634014986,220.33,103146138,0.01294458657503128,-0.17481154203414917,1510,1510,180.7584686279297,-0.007582350634038448
2749742.826,634014986,220.33,103146138,0.03027275577187538,-0.16816577315330505,1510,1510,180.73129272460938,-0.005561675410717726
2749842.826,634014987,220.35,103146136,0.039102062582969666,-0.16023555397987366,1510,1510,180.68748474121094,-0.006341482512652874
2749942.826,634014987,220.35,103146136,0.03319251537322998,-0.15556707978248596,1510,1510,180.63351440429688,-0.008456890471279621
2750042.826,634014987,220.37,103146134,0.016367558389902115,-0.17017948627471924,1510,1510,180.5800018310547,-0.009407815523445606
2750142.826,634014987,220.37,103146134,0.013554416596889496,-0.1749666929244995,1510,1510,180.55081176757812,-0.007973194122314453
2750242.826,634014988,220.37,103146132,0.0279410220682621,-0.1768067479133606,1510,1510,180.5395965576172,-0.006105292122811079
2750342.826,634014988,220.37,103146132,0.04341393709182739,-0.17455679178237915,1510,1510,180.5109100341797,-0.005851309280842543
2750442.826,634014989,220.38,103146131,0.037975624203681946,-0.15781860053539276,1510,1510,180.47796630859375,-0.007226045709103346
2750542.826,634014989,220.38,103146131,0.024777615442872047,-0.1568976640701294,1510,1510,180.422119140625,-0.008749306201934814
2750642.826,634014990,220.4,103146129,0.015542199835181236,-0.16041478514671326,1510,1510,180.34814453125,-0.008972886949777603
2750742.826,634014990,220.4,103146129,0.019672363996505737,-0.17083360254764557,1510,1510,180.29116821289062,-0.006706761196255684
2750842.826,634014990,220.4,103146127,0.042076610028743744,-0.16964033246040344,1510,1510,180.26052856445312,-0.00580950453877449
2750942.826,634014990,220.4,103146127,0.04106123000383377,-0.15970583260059357,1510,1510,180.22064208984375,-0.006113213486969471
2751042.826,634014991,220.42,103146125,0.036096323281526566,-0.1641821265220642,1510,1510,180.1703643798828,-0.008002061396837234
2751142.826,634014991,220.42,103146125,0.014337106607854366,-0.1608283817768097,1510,1510,180.10888671875,-0.00863482803106308
2751242.826,634014992,220.43,103146123,0.009914910420775414,-0.16997389495372772,1510,1510,180.06675720214844,-0.007149046286940575
2751342.826,634014992,220.43,103146123,0.02486938051879406,-0.174252450466156,1510,1510,180.05177307128906,-0.005307369865477085
2751442.826,634014992,220.45,103146122,0.03844614699482918,-0.1563827395439148,1510,1510,180.01129150390625,-0.004820374771952629
2751542.826,634014992,220.45,103146122,0.04253610223531723,-0.15587663650512695,1510,1510,179.95054626464844,-0.0067748622968792915
2751642.826,634014993,220.46,103146120,0.033484071493148804,-0.15716876089572906,1510,1510,179.91038513183594,-0.008302999660372734
2751742.826,634014993,220.46,103146120,0.012236391194164753,-0.16363924741744995,1510,1510,179.86294555664062,-0.008046099916100502
2751842.826,634014993,220.46,103146120,0.019072275608778,-0.17249251902103424,1510,1510,179.84132385253906,-0.005962394643574953
2751942.826,634014993,220.46,103146120,0.027848005294799805,-0.17521488666534424,1510,1510,179.81442260742188,-0.0043161227367818356
2752042.826,634014994,220.47,103146118,0.04355667158961296,-0.15907657146453857,1510,1510,179.75567626953125,-0.00545695424079895
2752142.826,634014994,220.47,103146118,0.03562188148498535,-0.15790054202079773,1510,1510,179.70416259765625,-0.0070684319362044334
2752242.826,634014994,220.48,103146117,0.018302084878087044,-0.16382193565368652,1510,1510,179.6674041748047,-0.007986326701939106
2752342.826,634014994,220.48,103146117,0.009539337828755379,-0.17447778582572937,1510,1510,179.62213134765625,-0.006818138994276524
2752442.826,634014995,220.49,103146116,0.02695423550903797,-0.1763933002948761,1510,1510,179.61050415039062,-0.005087234079837799
2752542.826,634014995,220.49,103146116,0.03527257964015007,-0.1637980192899704,1510,1510,179.61239624023438,-0.004759514704346657
2752642.826,634014996,220.5,103146114,0.0395939014852047,-0.15450197458267212,1510,1510,179.56813049316406,-0.00566785829141736
2752742.826,634014996,220.5,103146114,0.005455196835100651,-0.06503015011548996,1662,1605,179.60704040527344,-0.005276021547615528
2752842.826,634014996,220.5,103146114,0.002841354813426733,-0.0974423810839653,1510,1510,179.70523071289062,0.014005012810230255
2752942.826,634014996,220.5,103146114,0.09090717136859894,-0.14114463329315186,1510,1510,179.9380645751953,0.034593235701322556
2753042.826,634014996,220.51,103146113,0.16277365386486053,-0.029649265110492706,1510,1510,180.221923828125,0.047428976744413376
2753142.826,634014996,220.51,103146113,0.078017458319664,-0.1228601336479187,1900,1753,180.5350341796875,0.0572887659072876
2753242.826,634014996,220.52,103146111,0.04043210297822952,-0.23287057876586914,1732,1648,181.0048065185547,0.07211460173130035
2753342.826,634014996,220.52,103146111,-0.0550328865647316,-0.1473650187253952,1510,1510,181.57217407226562,0.09258930385112762
2753442.826,634014996,220.52,103146110,0.09489896893501282,-0.20134498178958893,1510,1510,182.10137939453125,0.09723109751939774
2753542.826,634014996,220.52,103146110,-0.042769335210323334,-0.19676505029201508,1510,1510,182.6237030029297,0.09320472180843353
2753642.826,634014996,220.52,103146109,0.06369645893573761,-0.18207262456417084,1510,1510,183.128662109375,0.0917854756116867
2753742.826,634014996,220.52,103146109,-0.008249090053141117,-0.15782786905765533,1510,1510,183.6239471435547,0.09168339520692825
2753842.826,634014996,220.53,103146107,0.05125855281949043,-0.1894189566373825,1510,1510,184.1136474609375,0.08929404616355896
2753942.826,634014996,220.53,103146107,0.019939053803682327,-0.15772376954555511,1510,1510,184.604248046875,0.08614959567785263
2754042.826,634014996,220.52,103146107,0.04700063169002533,-0.16940893232822418,1510,1510,185.09640502929688,0.08327187597751617
2754142.826,634014996,220.52,103146107,0.0786239504814148,-0.15477854013442993,1510,1510,185.6259765625,0.09340479969978333
2754242.826,634014996,220.53,103146106,0.08633143454790115,-0.1218080073595047,1510,1510,186.13748168945312,0.09079703688621521
2754342.826,634014996,220.53,103146106,0.03238818421959877,-0.22137755155563354,1510,1510,186.5939178466797,0.0823424905538559
2754442.826,634014995,220.52,103146105,0.0006507489597424865,-0.1735473871231079,1510,1510,187.028076171875,0.07912299782037735
2754542.826,634014995,220.52,103146105,-0.0010809990344569087,-0.15053898096084595,1510,1510,187.47682189941406,0.08040598034858704
2754642.826,634014995,220.53,103146103,0.007226565852761269,-0.20933452248573303,1510,1510,187.9226837158203,0.0823361873626709
2754742.826,634014995,220.53,103146103,0.0474548377096653,-0.16017314791679382,1510,1510,188.36080932617188,0.08063936233520508
2754842.826,634014995,220.53,103146102,0.06527377665042877,-0.13932353258132935,1510,1510,188.7937774658203,0.07577940821647644
2754942.826,634014995,220.53,103146102,0.031640756875276566,-0.1776685267686844,1510,1510,189.20350646972656,0.071248859167099
2755042.826,634014995,220.54,103146101,0.03619200736284256,-0.15343289077281952,1510,1510,189.61256408691406,0.06945646554231644
2755142.826,634014995,220.54,103146101,0.02524431236088276,-0.145205557346344,1510,1510,190.02755737304688,0.07049673795700073
2755242.826,634014994,220.52,103146100,0.03522065281867981,-0.18483182787895203,1510,1510,190.42103576660156,0.07018141448497772
2755342.826,634014994,220.52,103146100,0.03573771193623543,-0.16758133471012115,1510,1510,190.79226684570312,0.0673174262046814
2755442.826,634014994,220.53,103146099,0.022066675126552582,-0.16136662662029266,1510,1510,191.15234375,0.06415843218564987
2755542.826,634014994,220.53,103146099,0.009379148483276367,-0.1750314086675644,1510,1510,191.4911346435547,0.06269998848438263
2755642.826,634014994,220.53,103146098,0.030264634639024734,-0.16741043329238892,1510,1510,191.8296661376953,0.06210413947701454
2755742.826,634014994,220.53,103146098,0.027984701097011566,-0.1620604246854782,1510,1510,192.17672729492188,0.06024182215332985
2755842.826,634014993,220.54,103146097,0.04172351956367493,-0.17425930500030518,1510,1510,192.51858520507812,0.058099523186683655
2755942.826,634014993,220.54,103146097,0.03371255844831467,-0.1556563526391983,1510,1510,192.85443115234375,0.05619385093450546
2756042.826,634014993,220.54,103146096,0.03263028711080551,-0.1535359025001526,1510,1510,193.19125366210938,0.055925153195858
2756142.826,634014993,220.54,103146096,0.022079527378082275,-0.16781805455684662,1510,1510,193.50936889648438,0.055818382650613785
2756242.826,634014993,220.54,103146095,0.033342473208904266,-0.16377614438533783,1510,1510,193.80226135253906,0.05348697304725647
2756342.826,634014993,220.54,103146095,0.027616731822490692,-0.16794507205486298,1510,1510,194.07994079589844,0.050560493022203445
2756442.826,634014993,220.55,103146094,0.025872785598039627,-0.17321641743183136,1510,1510,194.3562774658203,0.048570021986961365
2756542.826,634014993,220.55,103146094,0.019350897520780563,-0.16333670914173126,1510,1510,194.6305694580078,0.04791112244129181
2756642.826,634014992,220.56,103146094,0.03426899015903473,-0.16595982015132904,1510,1510,194.9048614501953,0.048340246081352234
2756742.826,634014992,220.56,103146094,0.03690408170223236,-0.16973483562469482,1510,1510,195.16542053222656,0.04772462695837021
2756842.826,634014992,220.56,103146093,0.045964647084474564,-0.1556963324546814,1510,1510,195.41070556640625,0.045257020741701126
2756942.826,634014992,220.56,103146093,0.03551148250699043,-0.15784893929958344,1510,1510,195.66368103027344,0.04299526289105415
2757042.826,634014992,220.56,103146092,0.029718978330492973,-0.1693180799484253,1510,1510,195.90977478027344,0.041815001517534256
2757142.826,634014992,220.56,103146092,0.027617698535323143,-0.16917407512664795,1510,1510,196.14544677734375,0.04055999964475632
2757242.826,634014991,220.57,103146091,0.029245514422655106,-0.16679324209690094,1510,1510,196.3705291748047,0.0402928926050663
2757342.826,634014991,220.57,103146091,0.023322558030486107,-0.16161829233169556,1510,1510,196.58084106445312,0.03931093215942383
2757442.826,634014990,220.56,103146090,0.028925549238920212,-0.15551666915416718,1510,1510,196.81558227539062,0.03824195638298988
2757542.826,634014990,220.56,103146090,0.03511304408311844,-0.15651531517505646,1900,1753,197.04827880859375,0.03727469593286514
2757642.826,634014990,220.57,103146090,0.024922994896769524,-0.17716364562511444,1560,1541,197.25564575195312,0.035493403673172
2757742.826,634014990,220.57,103146090,-0.022417616099119186,-0.12950001657009125,1510,1510,197.63247680664062,0.04563203454017639
2757842.826,634014989,220.57,103146089,0.08638624846935272,-0.16721031069755554,1510,1510,198.0029754638672,0.06224992126226425
2757942.826,634014989,220.57,103146089,0.07414646446704865,-0.13325458765029907,1510,1510,198.29806518554688,0.05565224960446358
2758042.826,634014988,220.58,103146088,0.03688487410545349,-0.14695504307746887,1510,1510,198.55764770507812,0.050096284598112106
2758142.826,634014988,220.58,103146088,0.00894452165812254,-0.17543882131576538,1510,1510,198.8355712890625,0.05112795531749725
2758242.826,634014988,220.6,103146090,0.012015553191304207,-0.16350431740283966,1510,1510,199.1383514404297,0.05370635539293289
2758342.826,634014988,220.6,103146090,0.019941819831728935,-0.17531880736351013,1510,1510,199.45394897460938,0.05428382381796837
2758442.826,634014988,220.61,103146088,0.017249591648578644,-0.17745676636695862,1510,1510,199.751953125,0.05273257941007614
2758542.826,634014988,220.61,103146088,0.03849403187632561,-0.16321949660778046,1510,1510,200.02456665039062,0.04956275224685669
2758642.826,634014987,220.62,103146089,0.04218558594584465,-0.16463486850261688,1510,1510,200.2842254638672,0.04581509158015251
2758742.826,634014987,220.62,103146089,0.05032235383987427,-0.16795293986797333,1510,1510,200.51815795898438,0.04296281933784485
2758842.826,634014986,220.64,103146089,0.03514118492603302,-0.14596664905548096,1510,1510,200.74868774414062,0.04210105538368225
2758942.826,634014986,220.64,103146089,0.029882721602916718,-0.15277734398841858,1510,1510,200.9922332763672,0.04340033978223801
2759042.826,634014985,220.65,103146088,0.015015006996691227,-0.1732267439365387,1510,1510,201.23361206054688,0.045249417424201965
2759142.826,634014985,220.65,103146088,0.028132859617471695,-0.16556277871131897,1510,1510,201.48423767089844,0.04479721933603287
2759242.826,634014985,220.68,103146088,0.031709641218185425,-0.18291638791561127,1510,1510,201.71566772460938,0.04167408123612404
2759342.826,634014985,220.68,103146088,0.03794761374592781,-0.17151206731796265,1510,1510,201.9365234375,0.03677677363157272
2759442.826,634014985,220.69,103146088,0.024820562452077866,-0.15247787535190582,1510,1510,202.14990234375,0.033733390271663666
2759542.826,634014985,220.69,103146088,0.02187659591436386,-0.15916109085083008,1510,1510,202.35728454589844,0.03492893651127815
2759642.826,634014984,220.71,103146088,0.029197555035352707,-0.15974029898643494,1510,1510,202.57142639160156,0.037325065582990646
2759742.826,634014984,220.71,103146088,0.04434783384203911,-0.16281546652317047,1510,1510,202.76426696777344,0.0375366248190403
2759842.826,634014983,220.72,103146087,0.037304770201444626,-0.16382233798503876,1510,1510,202.94552612304688,0.03512514382600784
2759942.826,634014983,220.72,103146087,0.032818567007780075,-0.16408807039260864,1510,1510,203.1326904296875,0.032321687787771225
2760042.826,634014983,220.72,103146086,0.020849820226430893,-0.16269008815288544,1510,1510,203.3047637939453,0.031124617904424667
2760142.826,634014983,220.72,103146086,0.026857221499085426,-0.1754668951034546,1510,1510,203.4701385498047,0.029484804719686508
2760242.826,634014982,220.74,103146085,0.02697751484811306,-0.1686483919620514,1510,1510,203.62701416015625,0.028478460386395454
2760342.826,634014982,220.74,103146085,0.0289345420897007,-0.15637099742889404,1510,1510,203.7906951904297,0.029087025672197342
2760442.826,634014982,220.75,103146084,0.03408975154161453,-0.15594375133514404,1510,1510,203.96131896972656,0.02916489914059639
2760542.826,634014982,220.75,103146084,0.13855944573879242,-0.16297796368598938,1494,1525,204.13038635253906,0.029082413762807846
2760642.826,634014981,220.76,103146083,0.039029352366924286,-0.1755865514278412,1510,1510,204.26724243164062,0.02561367303133011
2760742.826,634014981,220.76,103146083,0.1829240471124649,-0.14303377270698547,1445,1572,204.39976501464844,0.023467527702450752
2760842.826,634014980,220.76,103146081,0.6060391664505005,-0.14254359900951385,1371,1642,204.53892517089844,0.0244489423930645
2760942.826,634014980,220.76,103146081,0.6155871152877808,-0.1467006653547287,1453,1564,204.6973114013672,0.024874247610569
2761042.826,634014977,220.77,103146079,0.2773455083370209,-0.13791236281394958,1510,1510,204.8533477783203,0.02634400874376297
2761142.826,634014977,220.77,103146079,0.1760459542274475,-0.15665830671787262,1510,1510,204.98944091796875,0.0263639148324728
2761242.826,634014974,220.77,103146077,0.010196131654083729,-0.17510351538658142,1510,1510,205.0947265625,0.024523228406906128
2761342.826,634014974,220.77,103146077,-0.21922367811203003,-0.16060441732406616,1566,1451,205.17926025390625,0.02102724462747574
2761442.826,634014972,220.78,103146075,-0.4255657196044922,-0.1637043058872223,1690,1320,205.2535400390625,0.01662883162498474
2761542.826,634014972,220.78,103146075,-0.6113605499267578,-0.16996963322162628,1510,1510,205.33425903320312,0.013673853129148483
2761642.826,634014972,220.8,103146074,-0.27085477113723755,-0.17080214619636536,1510,1510,205.41162109375,0.012775828130543232
2761742.826,634014972,220.8,103146074,-0.06247829273343086,-0.1623009443283081,1510,1510,205.49794006347656,0.011377042159438133
2761842.826,634014971,220.8,103146072,0.11273425072431564,-0.17750607430934906,1510,1510,205.60227966308594,0.010154053568840027
2761942.826,634014971,220.8,103146072,0.21941906213760376,-0.13924314081668854,1510,1510,205.69235229492188,0.01100102812051773
2762042.826,634014971,220.82,103146069,0.23737786710262299,-0.17168644070625305,1510,1510,205.76724243164062,0.012516545131802559
2762142.826,634014971,220.82,103146069,0.12961889803409576,-0.16960260272026062,1510,1510,205.84317016601562,0.014109035022556782
2762242.826,634014970,220.83,103146067,0.022440779954195023,-0.16164429485797882,1510,1510,205.90130615234375,0.013681087642908096
2762342.826,634014970,220.83,103146067,-0.06950102746486664,-0.1685897558927536,1510,1510,205.94314575195312,0.012211594730615616
2762442.826,634014970,220.84,103146065,-0.07915619015693665,-0.16987408697605133,1510,1510,205.98760986328125,0.011198612861335278
2762542.826,634014970,220.84,103146065,-0.03987206146121025,-0.1606142818927765,1510,1510,206.04278564453125,0.010265708900988102
2762642.826,634014969,220.86,103146063,0.03483051806688309,-0.16630321741104126,1510,1510,206.11985778808594,0.00975906103849411
2762742.826,634014969,220.86,103146063,0.08737202733755112,-0.17016853392124176,1510,1510,206.189208984375,0.008888627402484417
2762842.826,634014968,220.86,103146061,0.12275709211826324,-0.15932846069335938,1510,1510,206.2364959716797,0.008640551939606667
2762942.826,634014968,220.86,103146061,0.1034565269947052,-0.164361372590065,1510,1510,206.27374267578125,0.007929802872240543
2763042.826,634014967,220.88,103146059,0.0659014880657196,-0.1698802411556244,1510,1510,206.32086181640625,0.0068141380324959755
2763142.826,634014967,220.88,103146059,0.00224402011372149,-0.1547035425901413,1510,1510,206.36166381835938,0.005481172818690538
2763242.826,634014967,220.9,103146058,-0.02353586256504059,-0.16946721076965332,1510,1510,206.3845977783203,0.0047533707693219185
2763342.826,634014967,220.9,103146058,-0.028128813952207565,-0.16512805223464966,1510,1510,206.42642211914062,0.0051205093041062355
2763442.826,634014966,220.9,103146056,0.009522709995508194,-0.16698673367500305,1510,1510,206.4591522216797,0.005242299288511276
2763542.826,634014966,220.9,103146056,0.0436825230717659,-0.16627654433250427,1510,1510,206.4790496826172,0.0042058322578668594
2763642.826,634014966,220.91,103146054,0.06693627685308456,-0.17052334547042847,1510,1510,206.4816436767578,0.0022947185207158327
2763742.826,634014966,220.91,103146054,0.07407946139574051,-0.1528174728155136,1510,1510,206.4940185546875,0.0014490776229649782
2763842.826,634014965,220.93,103146052,0.05351190268993378,-0.1644270122051239,1510,1510,206.51559448242188,0.0016729772323742509
2763942.826,634014965,220.93,103146052,0.03628867492079735,-0.1679207980632782,1510,1510,206.5157470703125,0.002629281021654606
2764042.826,634014964,220.94,103146050,0.020085539668798447,-0.1593545377254486,1510,1510,206.5181427001953,0.001922927564010024
2764142.826,634014964,220.94,103146050,-0.003057188354432583,-0.17265094816684723,1510,1510,206.52000427246094,0.0013093451270833611
2764242.826,634014963,220.95,103146049,0.003419490996748209,-0.1622571498155594,1510,1510,206.517578125,0.0007940036011859775
2764342.826,634014963,220.95,103146049,0.02208157628774643,-0.17053577303886414,1510,1510,206.53939819335938,0.0009352910565212369
2764442.826,634014962,220.96,103146048,0.03988167271018028,-0.16525503993034363,1510,1510,206.56991577148438,0.0001480832725064829
2764542.826,634014962,220.96,103146048,0.046695150434970856,-0.16515086591243744,1510,1510,206.57896423339844,-0.0007603006670251489
2764642.826,634014961,220.96,103146046,0.04883705452084541,-0.16087183356285095,1510,1510,206.58253479003906,-0.0011909606400877237
2764742.826,634014961,220.96,103146046,0.04307609051465988,-0.15777793526649475,1510,1510,206.59890747070312,-0.0001264929014723748
2764842.826,634014961,220.97,103146044,0.0320175364613533,-0.16767941415309906,1510,1510,206.61570739746094,0.0009755421197041869
2764942.826,634014961,220.97,103146044,0.027802152559161186,-0.1706811785697937,1510,1510,206.61595153808594,0.00013633126218337566
2765042.826,634014959,220.99,103146042,0.015008551999926567,-0.17346304655075073,1510,1510,206.5789794921875,-0.0019241395639255643
2765142.826,634014959,220.99,103146042,0.008930164389312267,-0.16452980041503906,1510,1510,206.5504608154297,-0.0030355253256857395
2765242.826,634014959,221,103146041,0.012308433651924133,-0.1604623794555664,1510,1510,206.5502471923828,-0.0021969571243971586
2765342.826,634014959,221,103146041,0.032702744007110596,-0.16702702641487122,1510,1510,206.56570434570312,-0.0006966941873542964
2765442.826,634014958,221.02,103146039,0.045881979167461395,-0.1684390902519226,1510,1510,206.58154296875,-0.000019476879970170557
2765542.826,634014958,221.02,103146039,0.043279122561216354,-0.16560283303260803,1510,1510,206.57366943359375,-0.0010741744190454483
2765642.826,634014958,221.02,103146037,0.03798653185367584,-0.156460702419281,1510,1510,206.55474853515625,-0.0023187072947621346
2765742.826,634014958,221.02,103146037,0.02634148672223091,-0.16842123866081238,1510,1510,206.53028869628906,-0.0020580387208610773
2765842.826,634014957,221.04,103146035,0.02657346799969673,-0.1697751134634018,1510,1510,206.50856018066406,-0.001300976611673832
2765942.826,634014957,221.04,103146035,0.02466777339577675,-0.16591370105743408,1510,1510,206.49102783203125,-0.0017660645535215735
2766042.826,634014956,221.05,103146034,0.0169796422123909,-0.15870022773742676,1510,1510,206.46859741210938,-0.0025394668336957693
2766142.826,634014956,221.05,103146034,0.019079752266407013,-0.16160468757152557,1510,1510,206.4396514892578,-0.0018834902439266443
2766242.826,634014955,221.06,103146031,0.027472790330648422,-0.1685689389705658,1510,1510,206.41554260253906,-0.0010754982940852642
2766342.826,634014955,221.06,103146031,0.0338672511279583,-0.1657402515411377,1510,1510,206.4088897705078,-0.000868520000949502
2766442.826,634014954,221.07,103146030,0.037405334413051605,-0.16706423461437225,1510,1510,206.4035186767578,-0.0022432967089116573
2766542.826,634014954,221.07,103146030,0.03374379128217697,-0.16517147421836853,1510,1510,206.39907836914062,-0.0028958884067833424
2766642.826,634014954,221.07,103146028,0.020039886236190796,-0.15937508642673492,1510,1510,206.39407348632812,-0.0025022984482347965
2766742.826,634014954,221.07,103146028,0.02365032583475113,-0.15612639486789703,1510,1510,206.38563537597656,-0.0015237926272675395
2766842.826,634014953,221.09,103146026,0.015256954357028008,-0.1672603338956833,1510,1510,206.3678741455078,-0.0007409498794004321
2766942.826,634014953,221.09,103146026,0.024233464151620865,-0.16711577773094177,1510,1510,206.3623504638672,-0.0016336010303348303
2767042.826,634014952,221.09,103146024,0.018237866461277008,-0.16923874616622925,1510,1510,206.37020874023438,-0.0023799047339707613
2767142.826,634014952,221.09,103146024,0.02536085993051529,-0.16435712575912476,1510,1510,206.385009765625,-0.002300453372299671
2767242.826,634014951,221.1,103146023,0.032239120453596115,-0.16374361515045166,1510,1510,206.36669921875,-0.002053868491202593
2767342.826,634014951,221.1,103146023,0.026507269591093063,-0.16468507051467896,1510,1510,206.3446044921875,-0.0018221144564449787
2767442.826,634014950,221.11,103146023,0.03944248706102371,-0.1551429033279419,1510,1510,206.33648681640625,-0.0017702289624139667
2767542.826,634014950,221.11,103146023,0.02640102617442608,-0.16262759268283844,1510,1510,206.3349609375,-0.001803080434910953
2767642.826,634014949,221.11,103146021,0.028470808640122414,-0.16951072216033936,1510,1510,206.33140563964844,-0.0016302424483001232
2767742.826,634014949,221.11,103146021,0.02153736725449562,-0.16812646389007568,1510,1510,206.32643127441406,-0.0016537499614059925
2767842.826,634014948,221.12,103146019,0.023229951038956642,-0.16845136880874634,1510,1510,206.32225036621094,-0.0013136774068698287
2767942.826,634014948,221.12,103146019,0.023440152406692505,-0.1589789241552353,1510,1510,206.308837890625,-0.002079310826957226
2768042.826,634014947,221.12,103146018,0.02427646517753601,-0.16352741420269012,1510,1510,206.30105590820312,-0.002860921435058117
2768142.826,634014947,221.12,103146018,0.027691924944519997,-0.16170507669448853,1510,1510,206.28826904296875,-0.001797508797608316
2768242.826,634014946,221.12,103146016,0.03300672397017479,-0.1691262274980545,1510,1510,206.27545166015625,-0.0008742943173274398
2768342.826,634014946,221.12,103146016,0.03607800975441933,-0.16750895977020264,1510,1510,206.26405334472656,-0.0009392244974151254
2768442.826,634014945,221.12,103146015,0.02349112369120121,-0.1693878173828125,1510,1510,206.24105834960938,-0.0017438866198062897
2768542.826,634014945,221.12,103146015,0.028098393231630325,-0.16303563117980957,1510,1510,206.2166290283203,-0.002027370035648346
2768642.826,634014944,221.13,103146014,0.024357125163078308,-0.16316473484039307,1510,1510,206.20176696777344,-0.0020303791388869286
2768742.826,634014944,221.13,103146014,0.02073853835463524,-0.162465900182724,1510,1510,206.19293212890625,-0.0015990922693163157
2768842.826,634014943,221.14,103146013,0.023867066949605942,-0.16141977906227112,1510,1510,206.17617797851562,-0.0015967177459970117
2768942.826,634014943,221.14,103146013,0.03174632787704468,-0.16702909767627716,1510,1510,206.1637725830078,-0.0008723441860638559
2769042.826,634014942,221.14,103146012,0.029562661424279213,-0.15857000648975372,1510,1510,206.15945434570312,-0.000893096555955708
2769142.826,634014942,221.14,103146012,0.021207235753536224,-0.16431143879890442,1510,1510,206.1577911376953,-0.0012575769796967506
2769242.826,634014941,221.14,103146011,0.022849638015031815,-0.16779634356498718,1510,1510,206.1512908935547,-0.0014544507721439004
2769342.826,634014941,221.14,103146011,0.026589319109916687,-0.16457396745681763,1510,1510,206.13539123535156,-0.0011607687920331955
2769442.826,634014940,221.15,103146011,0.09942784160375595,-0.23267178237438202,1510,1510,206.0516815185547,-0.002527663018554449
2769542.826,634014940,221.15,103146011,-0.09955336153507233,-0.20973655581474304,1254,1100,205.926513671875,-0.026028478518128395
2769642.826,634014939,221.15,103146010,0.22909225523471832,-0.28672686219215393,1510,1510,205.70989990234375,-0.02889936789870262
2769742.826,634014939,221.15,103146010,0.006451580673456192,-0.12360723316669464,1516,1504,205.45555114746094,-0.04845453426241875
2769842.826,634014939,221.16,103146009,0.007470269687473774,-0.24076563119888306,1510,1510,205.23440551757812,-0.04449378699064255
2769942.826,634014939,221.16,103146009,0.06187869608402252,-0.1549503207206726,1494,1525,205.00611877441406,-0.039615243673324585
2770042.826,634014937,221.17,103146007,0.16723041236400604,-0.10345730930566788,1478,1541,204.72750854492188,-0.043293267488479614
2770142.826,634014937,221.17,103146007,0.1953015774488449,-0.20284627377986908,1478,1541,204.44129943847656,-0.04785529151558876
2770242.826,634014936,221.18,103146006,0.017518596723675728,-0.14663203060626984,1510,1510,204.14755249023438,-0.04943162947893143
2770342.826,634014936,221.18,103146006,0.03950478881597519,-0.13171786069869995,1510,1510,203.81167602539062,-0.04787879437208176
2770442.826,634014934,221.19,103146004,-0.010689368471503258,-0.1975393295288086,1510,1510,203.57595825195312,-0.04377201944589615
2770542.826,634014934,221.19,103146004,0.07082901895046234,-0.17603349685668945,1461,1556,203.35513305664062,-0.0401851087808609
2770642.826,634014933,221.2,103146002,0.01390808168798685,-0.14676712453365326,1510,1510,203.1538848876953,-0.03952661529183388
2770742.826,634014933,221.2,103146002,0.04101025313138962,-0.21198761463165283,1510,1510,202.92218017578125,-0.041154008358716965
2770842.826,634014931,221.19,103146002,0.03408301621675491,-0.15670323371887207,1510,1510,202.6468963623047,-0.04405127093195915
2770942.826,634014931,221.19,103146002,0.04646660387516022,-0.1480361372232437,1510,1510,202.3717498779297,-0.045118968933820724
2771042.826,634014930,221.22,103146002,0.002163860248401761,-0.18077842891216278,1510,1510,202.13888549804688,-0.04321819543838501
2771142.826,634014930,221.22,103146002,0.021234922111034393,-0.1438445895910263,1510,1510,201.9402313232422,-0.038681793957948685
2771242.826,634014929,221.22,103146001,0.0034641900565475225,-0.14767542481422424,1510,1510,201.75115966796875,-0.03528288006782532
2771342.826,634014929,221.22,103146001,0.024511035531759262,-0.18208587169647217,1510,1510,201.56951904296875,-0.03441760689020157
2771442.826,634014927,221.23,103146000,0.020603343844413757,-0.1699337363243103,1510,1510,201.3719482421875,-0.036391597241163254
2771542.826,634014927,221.23,103146000,0.030418314039707184,-0.1713055968284607,1510,1510,201.16717529296875,-0.038385599851608276
2771642.826,634014925,221.23,103146000,0.017151527106761932,-0.17829686403274536,1510,1510,200.9664306640625,-0.038988832384347916
2771742.826,634014925,221.23,103146000,0.02167673408985138,-0.15736016631126404,1510,1510,200.7960662841797,-0.036854688078165054
2771842.826,634014924,221.24,103146000,0.016803739592432976,-0.16075992584228516,1510,1510,200.64657592773438,-0.03318113461136818
2771942.826,634014924,221.24,103146000,0.02422410435974598,-0.17559674382209778,1510,1510,200.4967041015625,-0.03046428970992565
2772042.826,634014922,221.24,103145999,0.02809618040919304,-0.15692070126533508,1510,1510,200.32359313964844,-0.03000447526574135
2772142.826,634014922,221.24,103145999,0.027928147464990616,-0.1564122587442398,1510,1510,200.14768981933594,-0.030925605446100235
2772242.826,634014920,221.24,103145999,0.01647525653243065,-0.16970549523830414,1510,1510,199.9776153564453,-0.032172754406929016
2772342.826,634014920,221.24,103145999,0.031237995252013206,-0.16796618700027466,1510,1510,199.81350708007812,-0.031636495143175125
2772442.826,634014919,221.25,103146000,0.02416195720434189,-0.1707831621170044,1510,1510,199.6637420654297,-0.030187368392944336
2772542.826,634014919,221.25,103146000,0.023158356547355652,-0.17002558708190918,1510,1510,199.50559997558594,-0.028786471113562584
2772642.826,634014917,221.26,103146000,0.018206223845481873,-0.1556921750307083,1510,1510,199.35488891601562,-0.027652697637677193
2772742.826,634014917,221.26,103146000,0.019595567137002945,-0.15694227814674377,1510,1510,199.19766235351562,-0.02563706412911415
2772842.826,634014916,221.27,103146000,0.028461597859859467,-0.1726735383272171,1510,1510,199.04791259765625,-0.024784527719020844
2772942.826,634014916,221.27,103146000,0.039750948548316956,-0.1764386147260666,1510,1510,198.89356994628906,-0.025854866951704025
2773042.826,634014914,221.29,103146000,0.027903566136956215,-0.1698741763830185,1510,1510,198.73756408691406,-0.02751992642879486
2773142.826,634014914,221.29,103146000,0.013773925602436066,-0.16897748410701752,1510,1510,198.60166931152344,-0.02698972448706627
2773242.826,634014913,221.3,103146001,0.02312362939119339,-0.15545564889907837,1510,1510,198.48272705078125,-0.02440190128982067
2773342.826,634014913,221.3,103146001,0.02672002650797367,-0.16110894083976746,1510,1510,198.36033630371094,-0.02258346974849701
2773442.826,634014911,221.31,103146001,0.025760965421795845,-0.16892775893211365,1510,1510,198.23007202148438,-0.02243606373667717
2773542.826,634014911,221.31,103146001,0.029845353215932846,-0.16943541169166565,1510,1510,198.09432983398438,-0.022894563153386116
2773642.826,634014910,221.32,103146001,0.026028942316770554,-0.16310186684131622,1510,1510,197.96827697753906,-0.02270376682281494
2773742.826,634014910,221.32,103146001,0.034326568245887756,-0.17075076699256897,1510,1510,197.8667755126953,-0.021981187164783478
2773842.826,634014908,221.32,103146001,0.024420475587248802,-0.1701352298259735,1510,1510,197.7539825439453,-0.0216879453510046
2773942.826,634014908,221.32,103146001,0.026371467858552933,-0.1600130945444107,1510,1510,197.64096069335938,-0.022163258865475655
2774042.826,634014907,221.34,103146001,0.021620282903313637,-0.16483590006828308,1510,1510,197.53976440429688,-0.021903961896896362
2774142.826,634014907,221.34,103146001,0.019578181207180023,-0.15512625873088837,1510,1510,197.44216918945312,-0.020397769287228584
2774242.826,634014906,221.34,103146001,0.026588156819343567,-0.16975846886634827,1510,1510,197.32952880859375,-0.018404433503746986
2774342.826,634014906,221.34,103146001,0.03274954855442047,-0.17335277795791626,1510,1510,197.2002716064453,-0.018294472247362137
2774442.826,634014904,221.35,103146001,0.031625013798475266,-0.1729327291250229,1510,1510,197.0946807861328,-0.019735917448997498
2774542.826,634014904,221.35,103146001,0.028292439877986908,-0.15951058268547058,1510,1510,197.01080322265625,-0.020580029115080833
2774642.826,634014902,221.35,103146000,0.025913091376423836,-0.15513834357261658,1510,1510,196.9129180908203,-0.019874611869454384
2774742.826,634014902,221.35,103146000,0.02088918909430504,-0.16042791306972504,1510,1510,196.82546997070312,-0.018054042011499405
2774842.826,634014901,221.35,103146000,0.024369552731513977,-0.1611764132976532,1510,1510,196.7411346435547,-0.01626436971127987
2774942.826,634014901,221.35,103146000,0.02879280224442482,-0.17395086586475372,1510,1510,196.64300537109375,-0.016184985637664795
2775042.826,634014899,221.35,103146001,0.02050231397151947,-0.16795708239078522,1510,1510,196.52276611328125,-0.016916686668992043
2775142.826,634014899,221.35,103146001,0.024488665163517,-0.165296733379364,1510,1510,196.40536499023438,-0.016854604706168175
2775242.826,634014898,221.37,103146001,0.032760992646217346,-0.16313500702381134,1510,1510,196.3172149658203,-0.016558408737182617
2775342.826,634014898,221.37,103146001,0.02851683832705021,-0.16413471102714539,1510,1510,196.22903442382812,-0.016328245401382446
2775442.826,634014897,221.37,103146001,0.023944705724716187,-0.16656485199928284,1510,1510,196.1602325439453,-0.01653561368584633
2775542.826,634014897,221.37,103146001,0.022237613797187805,-0.1587674766778946,1510,1510,196.10281372070312,-0.015816200524568558
2775642.826,634014895,221.38,103146001,0.019777992740273476,-0.15733519196510315,1510,1510,196.04774475097656,-0.01401129923760891
2775742.826,634014895,221.38,103146001,0.02613324485719204,-0.168773353099823,1510,1510,195.97653198242188,-0.012578357011079788
2775842.826,634014893,221.38,103146002,0.03645261749625206,-0.1783825308084488,1510,1510,195.8964080810547,-0.014109963551163673
2775942.826,634014893,221.38,103146002,0.033151738345623016,-0.17181269824504852,1510,1510,195.78225708007812,-0.016174785792827606
2776042.826,634014892,221.4,103146002,0.014645228162407875,-0.15267416834831238,1510,1510,195.7010040283203,-0.016000835224986076
2776142.826,634014892,221.4,103146002,0.02119058556854725,-0.1576324999332428,1510,1510,195.6365203857422,-0.013578301295638084
2776242.826,634014891,221.41,103146002,0.026166701689362526,-0.16687604784965515,1510,1510,195.57627868652344,-0.01171706523746252
2776342.826,634014891,221.41,103146002,0.03284389525651932,-0.17148667573928833,1510,1510,195.48709106445312,-0.011578373610973358
2776442.826,634014890,221.42,103146002,0.029513709247112274,-0.16639253497123718,1510,1510,195.39698791503906,-0.01303883921355009
2776542.826,634014890,221.42,103146002,0.023644249886274338,-0.15897010266780853,1510,1510,195.3248291015625,-0.013883674517273903
2776642.826,634014889,221.44,103146002,0.022031286731362343,-0.15414555370807648,1510,1510,195.26734924316406,-0.013131104409694672
2776742.826,634014889,221.44,103146002,0.029868338257074356,-0.16891805827617645,1510,1510,195.2281494140625,-0.012085526250302792
2776842.826,634014888,221.44,103146002,0.02788062021136284,-0.16729344427585602,1498,1521,195.16412353515625,-0.01191162783652544
2776942.826,634014888,221.44,103146002,0.2800450026988983,-0.1512807309627533,1433,1584,195.1018524169922,-0.01150139793753624
2777042.826,634014885,221.46,103146002,0.5641120672225952,-0.16325709223747253,1465,1552,195.09327697753906,-0.008974147960543633
2777142.826,634014885,221.46,103146002,0.5539244413375854,-0.18623362481594086,1465,1552,195.09951782226562,-0.006086340174078941
2777242.826,634014882,221.46,103146001,0.2906099855899811,-0.18138130009174347,1510,1510,195.07176208496094,-0.004182690288871527
2777342.826,634014882,221.46,103146001,0.1714308112859726,-0.167691171169281,1510,1510,195.0327911376953,-0.004293009173125029
2777442.826,634014879,221.46,103146000,-0.008038349449634552,-0.16092932224273682,1510,1510,194.99534606933594,-0.004549161531031132
2777542.826,634014879,221.46,103146000,-0.14279864728450775,-0.15881937742233276,1510,1510,194.9642791748047,-0.00392602663487196
2777642.826,634014876,221.48,103145999,-0.1784743219614029,-0.15886691212654114,1510,1510,194.9373779296875,-0.0023807270918041468
2777742.826,634014876,221.48,103145999,-0.10458505153656006,-0.1840759813785553,1510,1510,194.9270782470703,-0.0012070080265402794
2777842.826,634014873,221.5,103145998,0.009327422827482224,-0.17238149046897888,1528,1491,194.92147827148438,-0.0023101114202290773
2777942.826,634014873,221.5,103145998,0.09516272693872452,-0.16576792299747467,1628,1386,194.87814331054688,-0.004452072083950043
2778042.826,634014870,221.5,103145998,-0.26035967469215393,-0.14771372079849243,1753,1255,194.8373260498047,-0.0080940630286932
2778142.826,634014870,221.5,103145998,-0.20564863085746765,-0.16482797265052795,1778,1228,194.80526733398438,-0.005838577635586262
2778242.826,634014869,221.5,103145998,-1.1485334634780884,-0.1727180927991867,1653,1360,194.7357940673828,-0.006605697795748711
2778342.826,634014869,221.5,103145998,-1.841247797012329,-0.18612125515937805,1653,1360,194.65228271484375,-0.014945173636078835
2778442.826,634014873,221.51,103146000,-0.731654703617096,-0.16017575562000275,1534,1484,194.57139587402344,-0.018821293488144875
2778542.826,634014873,221.51,103146000,-0.3222138583660126,-0.15383611619472504,1534,1484,194.43995666503906,-0.021989447996020317
2778642.826,634014876,221.53,103146002,-0.09240484237670898,-0.14019933342933655,1516,1504,194.36021423339844,-0.02651519514620304
2778742.826,634014876,221.53,103146002,0.3338550925254822,-0.19213446974754333,1516,1504,194.3053436279297,-0.019640754908323288
2778842.826,634014879,221.53,103146004,0.4653196930885315,-0.13381892442703247,1563,1543,194.2233123779297,-0.01743820309638977
2778942.826,634014879,221.53,103146004,0.32007378339767456,-0.13486096262931824,1563,1543,194.14744567871094,-0.014470196329057217
2779042.826,634014882,221.55,103146005,0.09112522751092911,-0.09357743710279465,1763,1668,194.21961975097656,-0.0036450806073844433
2779142.826,634014882,221.55,103146005,-0.005776936654001474,-0.09283290058374405,1763,1668,194.4878692626953,0.02752242051064968
2779242.826,634014886,221.56,103146006,-0.7514503598213196,-0.003782278159633279,1696,1626,195.13560485839844,0.06366181373596191
2779342.826,634014886,221.56,103146006,0.12167011201381683,-0.18461984395980835,1510,1510,195.77426147460938,0.12424895167350769
2779442.826,634014891,221.57,103146008,-0.1018269807100296,-0.15821872651576996,1510,1510,196.24339294433594,0.10385896265506744
2779542.826,634014891,221.57,103146008,0.15902918577194214,-0.2880707383155823,1510,1510,196.73672485351562,0.0809904932975769
2779642.826,634014894,221.57,103146010,0.006301942281424999,-0.19387510418891907,1546,1533,197.33413696289062,0.0884542465209961
2779742.826,634014894,221.57,103146010,0.2632519602775574,-0.19228023290634155,1760,1666,198.10032653808594,0.10591450333595276
2779842.826,634014898,221.58,103146011,0.17487598955631256,-0.1841021478176117,1861,1729,198.9735107421875,0.13826677203178406
2779942.826,634014898,221.58,103146011,-0.16262538731098175,-0.09953951090574265,1854,1725,200.12232971191406,0.1584206074476242
2780042.826,634014903,221.59,103146013,-0.6585285663604736,0.20695644617080688,1854,1725,202.25645446777344,0.24003925919532776
2780142.826,634014903,221.59,103146013,-0.3040637969970703,0.05380542576313019,1812,1699,205.12355041503906,0.4130847454071045
2780242.826,634014910,221.61,103146016,-0.2674489915370941,-0.13833048939704895,1812,1699,208.37120056152344,0.5134135484695435
2780342.826,634014910,221.61,103146016,-0.21693255007266998,-0.21095040440559387,1550,1535,212.05169677734375,0.5768872499465942
2780442.826,634014917,221.62,103146020,0.07949797809123993,-0.2580075263977051,1510,1510,215.87472534179688,0.6512522101402283
2780542.826,634014917,221.62,103146020,0.7684662342071533,-0.5198697447776794,1510,1510,218.96189880371094,0.627011239528656
2780642.826,634014922,221.62,103146025,0.27534523606300354,-0.7516260147094727,1510,1510,221.60269165039062,0.5183314681053162
2780742.826,634014922,221.62,103146025,0.2843630313873291,-0.5347016453742981,1510,1510,224.07504272460938,0.4662456512451172
2780842.826,634014927,221.63,103146031,0.01691819354891777,-0.4450404942035675,1510,1510,226.4709930419922,0.4437080919742584
2780942.826,634014927,221.63,103146031,0.12430857121944427,-0.5471822619438171,1510,1510,228.68460083007812,0.41622841358184814
2781042.826,634014930,221.64,103146038,-0.011809758841991425,-0.28830647468566895,1510,1510,230.63592529296875,0.3745337724685669
2781142.826,634014930,221.64,103146038,0.17823688685894012,-0.11923497915267944,1510,1510,232.38070678710938,0.33013561367988586
2781242.826,634014933,221.64,103146045,0.07822823524475098,-0.1925453394651413,1470,1548,233.99008178710938,0.30100664496421814
2781342.826,634014933,221.64,103146045,0.7877613306045532,-0.22972357273101807,1392,1623,235.4318389892578,0.27365484833717346
2781442.826,634014934,221.63,103146050,0.6945430040359497,-0.09515395760536194,1457,1560,236.76736450195312,0.2445162683725357
2781542.826,634014934,221.63,103146050,0.36320486664772034,-0.2241872400045395,1510,1510,238.01873779296875,0.22765378654003143
2781642.826,634014936,221.62,103146052,0.2573795020580292,-0.23887744545936584,1510,1510,239.15489196777344,0.22093971073627472
2781742.826,634014936,221.62,103146052,0.2219182550907135,-0.18847644329071045,1445,1572,240.15725708007812,0.20389330387115479
2781842.826,634014936,221.64,103146055,0.48124346137046814,-0.17745676636695862,1396,1619,241.10067749023438,0.18306776881217957
2781942.826,634014936,221.64,103146055,0.23717734217643738,-0.1455872654914856,1478,1541,242.02810668945312,0.1670958250761032
2782042.826,634014936,221.63,103146054,0.10685528814792633,-0.09388712048530579,1510,1510,242.888427734375,0.15717193484306335
2782142.826,634014936,221.63,103146054,0.12240520119667053,-0.14034053683280945,1510,1510,243.71759033203125,0.15183307230472565
2782242.826,634014936,221.62,103146053,0.07435675710439682,-0.15576469898223877,1510,1510,244.50405883789062,0.1484173983335495
2782342.826,634014936,221.62,103146053,0.03286528214812279,-0.11598671972751617,1510,1510,245.24273681640625,0.143556147813797
2782442.826,634014936,221.62,103146053,0.006818285211920738,-0.19323939085006714,1510,1510,245.90093994140625,0.13449016213417053
2782542.826,634014936,221.62,103146053,-0.0101039819419384,-0.1684032678604126,1478,1541,246.51315307617188,0.12201529741287231
2782642.826,634014936,221.63,103146052,0.5611556768417358,-0.14250390231609344,1396,1619,247.13168334960938,0.11222875118255615
2782742.826,634014936,221.63,103146052,0.588284432888031,-0.16053958237171173,1441,1576,247.77236938476562,0.1122296005487442
2782842.826,634014935,221.64,103146046,0.9713290333747864,-0.1484716534614563,1510,1510,248.40194702148438,0.11078948527574539
2782942.826,634014935,221.64,103146046,0.38090258836746216,-0.1055290475487709,1510,1510,248.96775817871094,0.10384326428174973
2783042.826,634014933,221.63,103146039,0.24154190719127655,-0.1329769492149353,1510,1510,249.45162963867188,0.09883879125118256
2783142.826,634014933,221.63,103146039,-0.022938447073101997,-0.11567358672618866,1510,1510,249.90869140625,0.09473149478435516
2783242.826,634014932,221.63,103146033,-0.1504952758550644,-0.13540014624595642,1510,1510,250.32716369628906,0.08918623626232147
2783342.826,634014932,221.63,103146033,-0.2327324002981186,-0.1867557018995285,1522,1497,250.74969482421875,0.0833156630396843
2783442.826,634014933,221.65,103146027,-0.1461629569530487,-0.14263714849948883,1522,1497,251.20114135742188,0.07925619184970856
2783542.826,634014933,221.65,103146027,-0.02916065976023674,-0.11932817846536636,1528,1491,251.649169921875,0.07942347973585129
2783642.826,634014932,221.65,103146023,0.05159900337457657,-0.19043610990047455,1455,1383,252.01739501953125,0.07893407344818115
2783742.826,634014932,221.65,103146023,0.42061394453048706,-0.21237558126449585,1344,1217,252.1583709716797,0.056860312819480896
2783842.826,634014931,221.65,103146016,0.2453438937664032,-0.17897337675094604,1300,1160,252.0994110107422,0.023579411208629608
2783942.826,634014931,221.65,103146016,0.1678505539894104,-0.4356999695301056,1299,1158,251.33355712890625,-0.026331035420298576
2784042.826,634014928,221.64,103146009,0.4287949800491333,-0.6549659371376038,1303,1152,249.48721313476562,-0.19365482032299042
2784142.826,634014928,221.64,103146009,-0.010218272916972637,-0.5520427227020264,1303,1152,246.97024536132812,-0.3788100481033325
2784242.826,634014924,221.63,103146003,-0.0886559784412384,-0.6587592363357544,1307,1145,243.91116333007812,-0.48914891481399536
2784342.826,634014924,221.63,103146003,0.10703341662883759,-0.5934081077575684,1309,1149,240.35400390625,-0.5794450044631958
2784442.826,634014920,221.64,103145997,-0.043104495853185654,-0.4920686185359955,1369,1244,236.37631225585938,-0.6708892583847046
2784542.826,634014920,221.64,103145997,-0.27539899945259094,-0.40887999534606934,1369,1244,232.30845642089844,-0.7313850522041321
2784642.826,634014916,221.63,103145994,-0.4460461735725403,-0.177831768989563,1484,1429,228.3172607421875,-0.7344954013824463
2784742.826,634014916,221.63,103145994,-0.5676002502441406,-0.0654996931552887,1484,1429,224.6348419189453,-0.7025822401046753
2784842.826,634014913,221.61,103145994,-0.5469963550567627,0.018741009756922722,1528,1491,221.683349609375,-0.6108017563819885
2784942.826,634014913,221.61,103145994,-0.35022974014282227,0.08658960461616516,1528,1491,219.1765899658203,-0.4929882884025574
2785042.826,634014911,221.61,103145992,-0.1818402111530304,-0.07851043343544006,1528,1491,216.84519958496094,-0.42778435349464417
2785142.826,634014911,221.61,103145992,-0.10182768106460571,-0.21793922781944275,1525,1487,214.61024475097656,-0.4034210741519928
2785242.826,634014911,221.62,103145992,-0.14265069365501404,-0.144137442111969,1484,1429,212.47665405273438,-0.3883565068244934
2785342.826,634014911,221.62,103145992,-0.38951972126960754,-0.16830043494701385,1406,1305,210.52322387695312,-0.3619556427001953
2785442.826,634014911,221.62,103145993,-0.4396785497665405,-0.28970152139663696,1397,1289,208.5467987060547,-0.3349097669124603
2785542.826,634014911,221.62,103145993,-0.3021038770675659,-0.31828564405441284,1394,1285,206.38526916503906,-0.35866785049438477
2785642.826,634014912,221.62,103145995,-0.2576802372932434,-0.35154926776885986,1394,1285,204.0640869140625,-0.39940518140792847
2785742.826,634014912,221.62,103145995,-0.1410568207502365,-0.30618566274642944,1394,1285,201.55670166015625,-0.43689218163490295
2785842.826,634014914,221.62,103145997,-0.10139289498329163,-0.18561071157455444,1390,1292,198.9086151123047,-0.4707290530204773
2785942.826,634014914,221.62,103145997,0.028439398854970932,-0.2197292000055313,1390,1292,196.14309692382812,-0.4898739755153656
2786042.826,634014915,221.64,103146000,-0.046691302210092545,-0.2156979739665985,1415,1331,193.3048553466797,-0.5029867887496948
2786142.826,634014915,221.64,103146000,-0.12581872940063477,-0.0929916650056839,1415,1331,190.4798126220703,-0.510500431060791
2786242.826,634014916,221.63,103146001,-0.23462188243865967,-0.08374793827533722,1421,1341,187.7542266845703,-0.49972066283226013
2786342.826,634014916,221.63,103146001,-0.22167229652404785,-0.11375093460083008,1423,1345,185.1437530517578,-0.4799879491329193
2786442.826,634014919,221.63,103146001,-0.1950896829366684,-0.08436256647109985,1423,1345,182.6141815185547,-0.4585427939891815
2786542.826,634014919,221.63,103146001,-0.11166241765022278,-0.14322051405906677,1427,1350,180.18780517578125,-0.4413105547428131
2786642.826,634014922,221.62,103146000,0.0041840714402496815,-0.1460556983947754,1428,1352,177.78909301757812,-0.43170779943466187
2786742.826,634014922,221.62,103146000,0.01445819716900587,-0.05062355101108551,1431,1357,175.38018798828125,-0.4289175271987915
2786842.826,634014925,221.63,103146000,-0.03786354884505272,-0.032541852444410324,1458,1400,173.00466918945312,-0.4266117215156555
2786942.826,634014925,221.63,103146000,-0.15336202085018158,-0.02174070104956627,1463,1409,170.82070922851562,-0.41180410981178284
2787042.826,634014930,221.63,103145998,-0.1983582228422165,-0.03328721225261688,1463,1409,168.84422302246094,-0.3714819848537445
2787142.826,634014930,221.63,103145998,-0.20583917200565338,-0.11931214481592178,1464,1411,167.08438110351562,-0.3304143249988556
2787242.826,634014936,221.64,103145995,-0.153782457113266,-0.15021169185638428,1464,1411,165.50863647460938,-0.29478737711906433
2787342.826,634014936,221.64,103145995,-0.0815742090344429,-0.10382887721061707,1464,1411,164.0935516357422,-0.265968382358551
2787442.826,634014942,221.64,103145990,-0.09582943469285965,-0.1044524759054184,1470,1419,162.89942932128906,-0.23666831851005554
2787542.826,634014942,221.64,103145990,-0.011861519888043404,-0.060252346098423004,1510,1510,161.98548889160156,-0.19459551572799683
2787642.826,634014948,221.65,103145984,0.13542701303958893,-0.07997415214776993,1510,1510,161.22486877441406,-0.1467934548854828
2787742.826,634014948,221.65,103145984,0.13911888003349304,-0.06759820133447647,1510,1510,160.54885864257812,-0.12502439320087433
2787842.826,634014954,221.65,103145978,0.07731705904006958,-0.09705032408237457,1510,1510,159.95944213867188,-0.11298951506614685
2787942.826,634014954,221.65,103145978,0.021676644682884216,-0.13278397917747498,1478,1541,159.5001220703125,-0.0921858549118042
2788042.826,634014960,221.66,103145972,0.0419912114739418,-0.1406535804271698,1396,1619,159.1655731201172,-0.0662555992603302
2788142.826,634014960,221.66,103145972,0.6153270602226257,-0.18705487251281738,1314,1697,158.9557647705078,-0.04272741451859474
2788242.826,634014964,221.67,103145967,0.6058192253112793,-0.14045727252960205,1285,1724,158.82376098632812,-0.025125734508037567
2788342.826,634014964,221.67,103145967,1.6428492069244385,-0.15927577018737793,1305,1705,158.76869201660156,-0.014850894920527935
2788442.826,634014965,221.69,103145966,3.127490997314453,-0.1841811090707779,1322,1689,158.80978393554688,-0.004427799955010414
2788542.826,634014965,221.69,103145966,3.0603818893432617,-0.14489945769309998,1322,1689,158.9198455810547,0.007493943441659212
2788642.826,634014957,221.68,103145974,2.2186965942382812,-0.1515313982963562,1486,1533,159.00648498535156,0.019431449472904205
2788742.826,634014957,221.68,103145974,1.0430961847305298,-0.1802065670490265,1486,1533,159.0470428466797,0.01971542090177536
2788842.826,634014950,221.67,103145984,0.09447985887527466,-0.18495629727840424,1507,1505,159.0083770751953,0.008378822356462479
2788942.826,634014950,221.67,103145984,-0.5743579864501953,-0.2379886507987976,1499,1493,158.91416931152344,-0.004962665028870106
2789042.826,634014944,221.68,103145991,-0.809542179107666,-0.24875952303409576,1499,1493,158.78245544433594,-0.015115790069103241
2789142.826,634014944,221.68,103145991,-0.5955101847648621,-0.20532795786857605,1491,1479,158.6093292236328,-0.022812409326434135
2789242.826,634014939,221.68,103145996,-0.25205332040786743,-0.30903905630111694,1458,1427,158.3023681640625,-0.03480358049273491
2789342.826,634014939,221.68,103145996,0.34479016065597534,-0.30593937635421753,1445,1406,157.8099822998047,-0.06408140808343887
2789442.826,634014932,221.68,103146004,0.45435696840286255,-0.24939733743667603,1441,1399,157.19049072265625,-0.08849706500768661
2789542.826,634014932,221.68,103146004,0.26525330543518066,-0.325040727853775,1441,1399,156.4330291748047,-0.10989268124103546
2789642.826,634014926,221.66,103146014,-0.016653968021273613,-0.2927114963531494,1441,1399,155.5266571044922,-0.1379062682390213
2789742.826,634014926,221.66,103146014,-0.23341932892799377,-0.309624046087265,1440,1397,154.42030334472656,-0.1696668118238449
2789842.826,634014922,221.66,103146022,-0.33363503217697144,-0.28424033522605896,1440,1397,153.12017822265625,-0.20532315969467163
2789942.826,634014922,221.66,103146022,-0.2949255704879761,-0.3345661461353302,1440,1397,151.69223022460938,-0.2365129590034485
2790042.826,634014917,221.68,103146030,-0.22868181765079498,-0.322658509016037,1440,1397,150.1724395751953,-0.25579360127449036
2790142.826,634014917,221.68,103146030,-0.04200848937034607,-0.3475048840045929,1440,1397,148.5430908203125,-0.26796916127204895
2790242.826,634014914,221.68,103146040,0.06331056356430054,-0.3423539102077484,1445,1406,146.82838439941406,-0.2857055068016052
2790342.826,634014914,221.68,103146040,0.03860897570848465,-0.3427204191684723,1445,1406,145.02491760253906,-0.30545496940612793
2790442.826,634014911,221.69,103146050,-0.0017175946850329638,-0.290179580450058,1445,1406,143.10032653808594,-0.32276761531829834
2790542.826,634014911,221.69,103146050,-0.09909223020076752,-0.2875879406929016,1445,1406,141.11770629882812,-0.3363262414932251
2790642.826,634014908,221.69,103146060,-0.11303187161684036,-0.29144972562789917,1447,1409,139.0491943359375,-0.34818410873413086
2790742.826,634014908,221.69,103146060,-0.11592023074626923,-0.28807532787323,1448,1411,136.9060516357422,-0.36080408096313477
2790842.826,634014905,221.68,103146070,-0.15547430515289307,-0.3301807641983032,1450,1413,134.7179718017578,-0.37460094690322876
2790942.826,634014905,221.68,103146070,-0.1322370022535324,-0.3140374422073364,1452,1417,132.47105407714844,-0.38147681951522827
2791042.826,634014904,221.68,103146080,-0.07083161920309067,-0.2943442761898041,1452,1417,130.25491333007812,-0.3849661946296692
2791142.826,634014904,221.68,103146080,-0.07247407734394073,-0.30164822936058044,1456,1424,128.03005981445312,-0.386849045753479
2791242.826,634014903,221.67,103146090,-0.10097572207450867,-0.28471681475639343,1477,1457,125.82677459716797,-0.38619139790534973
2791342.826,634014903,221.67,103146090,-0.14015068113803864,-0.2451108992099762,1510,1510,123.71395111083984,-0.37692898511886597
2791442.826,634014902,221.67,103146098,-0.18740889430046082,-0.2002122849225998,1510,1510,121.8234634399414,-0.35100650787353516
2791542.826,634014902,221.67,103146098,-0.10463812947273254,-0.1969037801027298,1502,1517,120.10484313964844,-0.31238994002342224
2791642.826,634014901,221.68,103146106,-0.03761974722146988,-0.1804419308900833,1474,1545,118.5186538696289,-0.28954917192459106
2791742.826,634014901,221.68,103146106,0.03984180465340614,-0.18182866275310516,1470,1548,116.95088958740234,-0.27321428060531616
2791842.826,634014900,221.66,103146114,0.04427427053451538,-0.13495513796806335,1478,1541,115.53130340576172,-0.2558285593986511
2791942.826,634014900,221.66,103146114,-0.02091354876756668,-0.15162575244903564,1482,1537,114.27277374267578,-0.23008838295936584
2792042.826,634014899,221.66,103146123,-0.02332548424601555,-0.17788267135620117,1478,1541,113.23067474365234,-0.1965406984090805
2792142.826,634014899,221.66,103146123,0.023774560540914536,-0.16018015146255493,1470,1548,112.31275939941406,-0.16548487544059753
2792242.826,634014898,221.65,103146130,0.05502459034323692,-0.19786280393600464,1486,1533,111.44489288330078,-0.14643263816833496
2792342.826,634014898,221.65,103146130,-0.01102922298014164,-0.20788560807704926,1510,1510,110.58865356445312,-0.1391133964061737
2792442.826,634014896,221.64,103146137,-0.021613046526908875,-0.18793177604675293,1510,1510,109.76790618896484,-0.13612033426761627
2792542.826,634014896,221.64,103146137,-0.05523344874382019,-0.18302719295024872,1510,1510,108.99358367919922,-0.13151422142982483
2792642.826,634014895,221.62,103146145,-0.06070481985807419,-0.15103597939014435,1510,1510,108.28889465332031,-0.11985258758068085
2792742.826,634014895,221.62,103146145,-0.05513894185423851,-0.14335554838180542,1510,1510,107.70750427246094,-0.10376787930727005
2792842.826,634014894,221.62,103146151,-0.032899100333452225,-0.16737551987171173,1510,1510,107.19229888916016,-0.08781103789806366
2792942.826,634014894,221.62,103146151,0.00013082173245493323,-0.18195533752441406,1510,1510,106.68327331542969,-0.07760646194219589
2793042.826,634014894,221.61,103146157,0.023875078186392784,-0.1840185523033142,1486,1533,106.15433502197266,-0.07600098103284836
2793142.826,634014894,221.61,103146157,0.02809317782521248,-0.19462525844573975,1465,1552,105.59822082519531,-0.07844492048025131
2793242.826,634014893,221.59,103146164,0.04646102339029312,-0.20091374218463898,1445,1572,105.05046844482422,-0.07994189858436584
2793342.826,634014893,221.59,103146164,0.2646622359752655,-0.15633752942085266,1449,1568,104.57109832763672,-0.07708270102739334
2793442.826,634014891,221.59,103146172,0.2550598978996277,-0.17069250345230103,1449,1568,104.1503677368164,-0.06904652714729309
2793542.826,634014891,221.59,103146172,0.3358038663864136,-0.15907934308052063,1449,1568,103.78805541992188,-0.056583087891340256
2793642.826,634014891,221.58,103146181,0.3685600757598877,-0.1566389501094818,1449,1568,103.45429992675781,-0.0464022122323513
2793742.826,634014891,221.58,103146181,0.446617066860199,-0.1849364936351776,1449,1568,103.11212158203125,-0.04426698759198189
2793842.826,634014890,221.57,103146194,0.5254802703857422,-0.1947072595357895,1449,1568,102.74878692626953,-0.050119951367378235
2793942.826,634014890,221.57,103146194,0.5631684064865112,-0.21319112181663513,1449,1568,102.38958740234375,-0.050916530191898346
2794042.826,634014889,221.55,103146209,0.5410645604133606,-0.1925702691078186,1461,1556,102.04740905761719,-0.04845726490020752
2794142.826,634014889,221.55,103146209,0.4781968891620636,-0.23556175827980042,1461,1556,101.70685577392578,-0.04452802613377571
2794242.826,634014888,221.55,103146228,0.4025602638721466,-0.21433855593204498,1461,1556,101.39791870117188,-0.04288746044039726
2794342.826,634014888,221.55,103146228,0.39297741651535034,-0.16911591589450836,1461,1556,101.0805892944336,-0.04137898609042168
2794442.826,634014887,221.53,103146247,0.12715940177440643,-0.2154426872730255,1490,1529,100.77412414550781,-0.04057793319225311
2794542.826,634014887,221.53,103146247,0.001434491015970707,-0.2124173641204834,1510,1510,100.48419189453125,-0.04077901691198349
2794642.826,634014886,221.52,103146266,-0.08663274347782135,-0.18642665445804596,1510,1510,100.18409729003906,-0.04265831783413887
2794742.826,634014886,221.52,103146266,-0.11285297572612762,-0.2204180657863617,1510,1510,99.86991882324219,-0.043998636305332184
2794842.826,634014885,221.51,103146284,-0.13081872463226318,-0.18920491635799408,1510,1510,99.55284118652344,-0.043938253074884415
2794942.826,634014885,221.51,103146284,-0.08091621100902557,-0.16816873848438263,1510,1510,99.2300033569336,-0.04228948801755905
2795042.826,634014884,221.51,103146302,-0.07009822875261307,-0.18018172681331635,1510,1510,98.9443588256836,-0.03833642601966858
2795142.826,634014884,221.51,103146302,-0.023552749305963516,-0.1532980054616928,1510,1510,98.6743392944336,-0.03248926252126694
2795242.826,634014884,221.51,103146319,-0.014251749031245708,-0.15467149019241333,1510,1510,98.43156433105469,-0.026468202471733093
2795342.826,634014884,221.51,103146319,-0.001541390549391508,-0.20035001635551453,1510,1510,98.21170806884766,-0.023615986108779907
2795442.826,634014883,221.49,103146337,-0.009728532284498215,-0.1843673288822174,1510,1510,97.94984436035156,-0.024738118052482605
2795542.826,634014883,221.49,103146337,-0.02186645194888115,-0.19480670988559723,1510,1510,97.70441436767578,-0.02774110436439514
2795642.826,634014883,221.49,103146353,-0.05252956226468086,-0.18703101575374603,1510,1510,97.47396087646484,-0.02897973172366619
2795742.826,634014883,221.49,103146353,-0.03965126350522041,-0.16817425191402435,1510,1510,97.24913787841797,-0.027906212955713272
2795842.826,634014882,221.48,103146369,-0.025784581899642944,-0.17214307188987732,1510,1510,97.03213500976562,-0.027137111872434616
2795942.826,634014882,221.48,103146369,0.0015378250973299146,-0.1796199381351471,1510,1510,96.78759002685547,-0.027964595705270767
2796042.826,634014881,221.47,103146385,-0.01213991641998291,-0.17443527281284332,1510,1510,96.54434204101562,-0.02917642518877983
2796142.826,634014881,221.47,103146385,-0.02129032276570797,-0.17913158237934113,1510,1510,96.32648468017578,-0.028718162328004837
2796242.826,634014881,221.47,103146400,-0.029963791370391846,-0.18540385365486145,1510,1510,96.1443862915039,-0.026848461478948593
2796342.826,634014881,221.47,103146400,-0.019437504932284355,-0.18012769520282745,1510,1510,95.96534729003906,-0.025809098035097122
2796442.826,634014879,221.45,103146415,-0.023849401623010635,-0.1797063648700714,1510,1510,95.74974060058594,-0.026681752875447273
2796542.826,634014879,221.45,103146415,-0.034166883677244186,-0.17620941996574402,1510,1510,95.54328918457031,-0.027539338916540146
2796642.826,634014879,221.43,103146429,-0.030929313972592354,-0.16609987616539001,1510,1510,95.31192016601562,-0.027260808274149895
2796742.826,634014879,221.43,103146429,-0.023712430149316788,-0.17640727758407593,1510,1510,95.11298370361328,-0.02506960555911064
2796842.826,634014879,221.42,103146444,-0.021532762795686722,-0.17658591270446777,1510,1510,94.9114761352539,-0.022335464134812355
2796942.826,634014879,221.42,103146444,0.10209807753562927,-0.1384110152721405,1453,1564,94.7870101928711,-0.019146256148815155
2797042.826,634014878,221.41,103146458,0.1690451055765152,-0.15105867385864258,1461,1556,94.68477630615234,-0.014241783879697323
2797142.826,634014878,221.41,103146458,0.02913491241633892,-0.17317433655261993,1510,1510,94.5745849609375,-0.01350467000156641
2797242.826,634014878,221.4,103146472,0.016491157934069633,-0.14634892344474792,1510,1510,94.46817779541016,-0.012169788591563702
2797342.826,634014878,221.4,103146472,-0.029095284640789032,-0.16206510365009308,1510,1510,94.3592529296875,-0.010053465142846107
2797442.826,634014878,221.39,103146486,-0.05996892601251602,-0.17696897685527802,1590,1560,94.2844467163086,-0.0078120604157447815
2797542.826,634014878,221.39,103146486,-0.33989202976226807,-0.11506916582584381,1590,1560,94.31304168701172,-0.0020417659543454647
2797642.826,634014877,221.39,103146498,-0.11195643246173859,-0.1134331077337265,1582,1555,94.3802719116211,0.014150865375995636
2797742.826,634014877,221.39,103146498,-0.1313224732875824,-0.1603861004114151,1558,1540,94.4297866821289,0.019401181489229202
2797842.826,634014876,221.37,103146509,-0.06844563782215118,-0.1409185230731964,1544,1547,94.4837875366211,0.019007716327905655
2797942.826,634014876,221.37,103146509,-0.02372034266591072,-0.10268144309520721,1562,1542,94.58424377441406,0.022566864266991615
2798042.826,634014875,221.37,103146521,-0.12832675874233246,-0.14415255188941956,1557,1539,94.7313003540039,0.03164691478013992
2798142.826,634014875,221.37,103146521,-0.12712928652763367,-0.14064404368400574,1478,1541,94.91471099853516,0.0436343178153038
2798242.826,634014875,221.35,103146531,-0.03436415269970894,-0.15304678678512573,1461,1556,95.08343505859375,0.046682510524988174
2798342.826,634014875,221.35,103146531,0.0018524780170992017,-0.16239085793495178,1453,1564,95.24178314208984,0.04259130731225014
2798442.826,634014874,221.34,103146540,0.20143255591392517,-0.16435977816581726,1453,1564,95.34203338623047,0.03817735239863396
2798542.826,634014874,221.34,103146540,0.25294315814971924,-0.17304500937461853,1453,1564,95.41807556152344,0.03185354173183441
2798642.826,634014874,221.33,103146552,0.2938583791255951,-0.16701486706733704,1449,1560,95.50882720947266,0.029063832014799118
2798742.826,634014874,221.33,103146552,0.3686057925224304,-0.17298409342765808,1449,1560,95.58375549316406,0.028038542717695236
2798842.826,634014873,221.32,103146566,0.5769075751304626,-0.20023100078105927,1398,1511,95.47828674316406,0.018229659646749496
2798942.826,634014873,221.32,103146566,1.0432519912719727,-0.2861934304237366,1380,1485,95.03401184082031,-0.020057855173945427
2799042.826,634014872,221.31,103146585,0.9825347661972046,-0.31267422437667847,1374,1477,94.32180786132812,-0.07551707327365875
2799142.826,634014872,221.31,103146585,0.9557061195373535,-0.36734622716903687,1374,1477,93.42001342773438,-0.12148147821426392
2799242.826,634014872,221.3,103146611,0.9138638973236084,-0.38735178112983704,1374,1477,92.35502624511719,-0.15383274853229523
2799342.826,634014872,221.3,103146611,0.8119201064109802,-0.377145379781723,1379,1484,91.21920013427734,-0.18113139271736145
2799442.826,634014872,221.28,103146639,0.3462198078632355,-0.3096400499343872,1457,1560,90.24012756347656,-0.19571629166603088
2799542.826,634014872,221.28,103146639,-0.013297047466039658,-0.26076540350914,1465,1552,89.44105529785156,-0.16775359213352203
2799642.826,634014872,221.27,103146668,-0.10734765976667404,-0.21132348477840424,1537,1612,88.8542709350586,-0.13321836292743683
2799742.826,634014872,221.27,103146668,-0.22867633402347565,-0.11115235090255737,1621,1665,88.6026382446289,-0.0974915474653244
2799842.826,634014873,221.27,103146695,0.15338784456253052,-0.00581540958955884,1634,1673,88.78450012207031,-0.027944326400756836
2799942.826,634014873,221.27,103146695,0.3021391034126282,0.03968174755573273,1528,1599,89.06745147705078,0.05498522147536278
2800042.826,634014873,221.26,103146722,0.21568186581134796,-0.07834361493587494,1508,1522,89.19482421875,0.06538890302181244
2800142.826,634014873,221.26,103146722,0.03392072767019272,-0.11422694474458694,1510,1510,89.25395965576172,0.032423149794340134
2800242.826,634014873,221.24,103146751,-0.15991534292697906,-0.13525807857513428,1510,1510,89.33602905273438,0.016492705792188644
2800342.826,634014873,221.24,103146751,-0.3213251233100891,-0.13333801925182343,1510,1510,89.41265869140625,0.016696689650416374
2800442.826,634014873,221.22,103146776,-0.38257157802581787,-0.16911664605140686,1510,1510,89.55317687988281,0.01944211684167385
2800542.826,634014873,221.22,103146776,-0.2915794253349304,-0.16003045439720154,1510,1510,89.69329833984375,0.023234866559505463
2800642.826,634014873,221.23,103146799,-0.1694054752588272,-0.12110769003629684,1510,1510,89.82353973388672,0.028820276260375977
2800742.826,634014873,221.23,103146799,-0.04873169958591461,-0.15393050014972687,1510,1510,89.97168731689453,0.03489033505320549
2800842.826,634014873,221.21,103146822,-0.0023397975601255894,-0.1650882214307785,1510,1510,90.08427429199219,0.03542521223425865
2800942.826,634014873,221.21,103146822,-0.011422322131693363,-0.1796119660139084,1510,1510,90.16464233398438,0.027809936553239822
2801042.826,634014872,221.22,103146845,-0.08411522209644318,-0.19708503782749176,1510,1510,90.20661163330078,0.014971660450100899
2801142.826,634014872,221.22,103146845,-0.1299094557762146,-0.1801648736000061,1510,1510,90.15276336669922,0.0002220667083747685
2801242.826,634014872,221.2,103146867,-0.15455836057662964,-0.15109334886074066,1510,1510,90.07148742675781,-0.010080733336508274
2801342.826,634014872,221.2,103146867,-0.1339949369430542,-0.13988228142261505,1541,1478,89.98957824707031,-0.012940904125571251
2801442.826,634014872,221.19,103146887,-0.12432517856359482,-0.12584266066551208,1566,1451,89.94282531738281,-0.007453568279743195
2801542.826,634014872,221.19,103146887,-0.41720739006996155,-0.16562828421592712,1566,1451,89.88482666015625,-0.0005664899945259094
2801642.826,634014873,221.19,103146906,-0.27807584404945374,-0.17085684835910797,1566,1451,89.84300231933594,0.002067267894744873
2801742.826,634014873,221.19,103146906,-0.22036421298980713,-0.19419310986995697,1534,1484,89.81050109863281,0.0018701199442148209
2801842.826,634014872,221.18,103146923,-0.1337534785270691,-0.21929168701171875,1522,1497,89.7805404663086,-0.0009033458190970123
2801942.826,634014872,221.18,103146923,-0.12968024611473083,-0.16677533090114594,1522,1497,89.71562957763672,-0.003338634269312024
2802042.826,634014872,221.18,103146939,-0.08595073223114014,-0.17259415984153748,1516,1504,89.6257095336914,-0.004578532185405493
2802142.826,634014872,221.18,103146939,-0.046501606702804565,-0.177825927734375,1516,1504,89.50361633300781,-0.007219180930405855
2802242.826,634014871,221.16,103146955,0.015372487716376781,-0.14400069415569305,1516,1504,89.37283325195312,-0.01319788210093975
2802342.826,634014871,221.16,103146955,-0.13038484752178192,-0.1692817509174347,1517,1506,89.2442855834961,-0.016778692603111267
2802442.826,634014872,221.15,103146970,-0.10080841183662415,-0.2060966193675995,1539,1520,89.15987396240234,-0.01587245613336563
2802542.826,634014872,221.15,103146970,-0.1418921947479248,-0.12939487397670746,1539,1520,89.09815979003906,-0.010422782972455025
2802642.826,634014872,221.14,103146984,-0.15033845603466034,-0.16632205247879028,1556,1531,89.05945587158203,-0.004928934387862682
2802742.826,634014872,221.14,103146984,-0.18302056193351746,-0.13799862563610077,1620,1579,89.10952758789062,0.0037081886548548937
2802842.826,634014872,221.13,103146997,-0.19169065356254578,-0.06707368046045303,1625,1582,89.35852813720703,0.02336815744638443
2802942.826,634014872,221.13,103146997,-0.45989975333213806,-0.05134883522987366,1619,1578,89.79948425292969,0.055877912789583206
2803042.826,634014872,221.12,103147006,-0.37583863735198975,-0.08408263325691223,1615,1576,90.37713623046875,0.08670059591531754
2803142.826,634014872,221.12,103147006,-0.43639054894447327,-0.04260759800672531,1585,1557,91.08226776123047,0.11024950444698334
2803242.826,634014871,221.11,103147013,-0.25187504291534424,-0.06513737142086029,1548,1534,91.94486236572266,0.13790971040725708
2803342.826,634014871,221.11,103147013,-0.13787207007408142,-0.1615990549325943,1513,1512,92.79867553710938,0.15753456950187683
2803442.826,634014871,221.11,103147020,0.03560268133878708,-0.12917116284370422,1510,1510,93.68675231933594,0.15719032287597656
2803542.826,634014871,221.11,103147020,0.026704750955104828,-0.12061601877212524,1510,1510,94.58384704589844,0.16147080063819885
2803642.826,634014870,221.09,103147026,0.11368825286626816,-0.22012385725975037,1505,1502,95.5239028930664,0.1675918698310852
2803742.826,634014870,221.09,103147026,0.07819951325654984,-0.1789582520723343,1474,1452,96.40341186523438,0.16724157333374023
2803842.826,634014869,221.09,103147033,0.08320194482803345,-0.240642711520195,1474,1452,97.07164764404297,0.15712732076644897
2803942.826,634014869,221.09,103147033,0.22199396789073944,-0.25662359595298767,1421,1367,97.54638671875,0.12133421003818512
2804042.826,634014869,221.08,103147041,0.050950393080711365,-0.22384148836135864,1484,1468,97.89971923828125,0.08119252324104309
2804142.826,634014869,221.08,103147041,0.006267464254051447,-0.1631191074848175,1510,1510,98.3205337524414,0.06673740595579147
2804242.826,634014868,221.07,103147049,0.021781552582979202,-0.12655533850193024,1510,1510,98.70551300048828,0.07345187664031982
2804342.826,634014868,221.07,103147049,0.0935976654291153,-0.16002777218818665,1510,1510,99.072509765625,0.0746845006942749
2804442.826,634014868,221.06,103147057,0.0866318941116333,-0.14933732151985168,1510,1510,99.38616943359375,0.06815693527460098
2804542.826,634014868,221.06,103147057,0.07063641399145126,-0.15915831923484802,1460,1429,99.59329223632812,0.057687632739543915
2804642.826,634014867,221.04,103147066,0.2598385214805603,-0.26102977991104126,1401,1335,99.55888366699219,0.03665407747030258
2804742.826,634014867,221.04,103147066,0.15045423805713654,-0.21692904829978943,1510,1510,99.4801025390625,-0.006378623656928539
2804842.826,634014866,221.04,103147075,-0.003465859219431877,-0.1311524510383606,1510,1510,99.4575424194336,-0.012041164562106133
2804942.826,634014866,221.04,103147075,0.026724936440587044,-0.2155720442533493,1510,1510,99.43293762207031,-0.0022845114581286907
2805042.826,634014866,221.03,103147084,0.030292561277747154,-0.14574353396892548,1510,1510,99.36157989501953,0.00005720023182220757
2805142.826,634014866,221.03,103147084,0.04885825887322426,-0.1117716133594513,1510,1510,99.28128814697266,-0.006041511427611113
2805242.826,634014865,221.02,103147093,0.009516955353319645,-0.19168110191822052,1510,1510,99.14022827148438,-0.01520233042538166
2805342.826,634014865,221.02,103147093,0.018936406821012497,-0.1770036816596985,1510,1510,99.01806640625,-0.020297076553106308
2805442.826,634014864,221.01,103147103,0.02409687638282776,-0.156929150223732,1510,1510,98.86433410644531,-0.021144205704331398
2805542.826,634014864,221.01,103147103,0.023802272975444794,-0.20460942387580872,1510,1510,98.72322082519531,-0.022007759660482407
2805642.826,634014863,221,103147112,0.034323424100875854,-0.16051338613033295,1510,1510,98.58160400390625,-0.02411811426281929
2805742.826,634014863,221,103147112,0.03036213293671608,-0.1416119933128357,1510,1510,98.42733764648438,-0.026110656559467316
2805842.826,634014863,220.98,103147122,0.012810418382287025,-0.17481011152267456,1510,1510,98.27490997314453,-0.027181487530469894
2805942.826,634014863,220.98,103147122,-0.023317528888583183,-0.1395181119441986,1559,1458,98.12345123291016,-0.02595563977956772
2806042.826,634014862,220.96,103147130,-0.13792738318443298,-0.17134374380111694,1659,1353,97.93785095214844,-0.021160632371902466
2806142.826,634014862,220.96,103147130,-0.3101136088371277,-0.20935434103012085,1666,1346,97.73613739013672,-0.02444550395011902
2806242.826,634014861,220.95,103147136,-0.7138906717300415,-0.1597670614719391,1541,1478,97.57589721679688,-0.02999691478908062
2806342.826,634014861,220.95,103147136,-0.5617583394050598,-0.12967640161514282,1510,1510,97.37010955810547,-0.02980545535683632
2806442.826,634014861,220.94,103147138,-0.1907576322555542,-0.15372584760189056,1510,1510,97.12200164794922,-0.03983710706233978
2806542.826,634014861,220.94,103147138,-0.032413776963949203,-0.1430405080318451,1510,1510,96.85360717773438,-0.04519510641694069
2806642.826,634014861,220.93,103147141,0.12684059143066406,-0.10438234359025955,1510,1510,96.60929107666016,-0.037831708788871765
2806742.826,634014861,220.93,103147141,0.2550491988658905,-0.20121440291404724,1510,1510,96.40631866455078,-0.030167231336236
2806842.826,634014861,220.91,103147144,0.2526838183403015,-0.2101888358592987,1510,1510,96.20772552490234,-0.03008468821644783
2806942.826,634014861,220.91,103147144,0.1671125590801239,-0.16996264457702637,1510,1510,95.96015930175781,-0.03804359585046768
2807042.826,634014860,220.9,103147147,-0.004338711500167847,-0.1863747537136078,1510,1510,95.71409606933594,-0.04512034356594086
2807142.826,634014860,220.9,103147147,-0.09727880358695984,-0.1443377435207367,1510,1510,95.5034408569336,-0.045852482318878174
2807242.826,634014860,220.88,103147150,-0.11667264252901077,-0.1448112428188324,1510,1510,95.3249740600586,-0.03949950635433197
2807342.826,634014860,220.88,103147150,-0.056730762124061584,-0.1728375405073166,1510,1510,95.16303253173828,-0.030841227620840073
2807442.826,634014859,220.87,103147153,0.05241343751549721,-0.18815740942955017,1510,1510,94.98861694335938,-0.027306947857141495
2807542.826,634014859,220.87,103147153,0.1332828849554062,-0.17999082803726196,1510,1510,94.7483139038086,-0.031195972114801407
2807642.826,634014859,220.85,103147157,0.1347702145576477,-0.1887277364730835,1510,1510,94.49520111083984,-0.03823532164096832
2807742.826,634014859,220.85,103147157,0.10855609178543091,-0.16302946209907532,1510,1510,94.25128936767578,-0.04318951815366745
2807842.826,634014858,220.83,103147159,0.03713710606098175,-0.13095930218696594,1510,1510,94.05357360839844,-0.041981883347034454
2807942.826,634014858,220.83,103147159,-0.020469386130571365,-0.1577821671962738,1510,1510,93.89579772949219,-0.035720691084861755
2808042.826,634014857,220.82,103147162,-0.03687070310115814,-0.1599971503019333,1510,1510,93.7347640991211,-0.029142243787646294
2808142.826,634014857,220.82,103147162,0.0013314533280208707,-0.17498376965522766,1510,1510,93.53263854980469,-0.027367889881134033
2808242.826,634014857,220.8,103147164,0.03503265976905823,-0.18325874209403992,1510,1510,93.2737808227539,-0.03291334956884384
2808342.826,634014857,220.8,103147164,0.055184442549943924,-0.1786465048789978,1510,1510,92.97980499267578,-0.03981209918856621
2808442.826,634014856,220.78,103147166,0.047849174588918686,-0.1516714096069336,1570,1547,92.72100067138672,-0.041562870144844055
2808542.826,634014856,220.78,103147166,-0.03645904362201691,-0.15276210010051727,1510,1510,92.50641632080078,-0.03809400275349617
2808642.826,634014855,220.77,103147167,0.04456481710076332,-0.142820805311203,1510,1510,92.33275604248047,-0.027231046929955482
2808742.826,634014855,220.77,103147167,0.027912069112062454,-0.13983653485774994,1510,1510,92.14872741699219,-0.022383837029337883
2808842.826,634014855,220.75,103147170,0.02706962451338768,-0.2066880613565445,1510,1510,91.9734115600586,-0.024884667247533798
2808942.826,634014855,220.75,103147170,0.017049649730324745,-0.17126646637916565,1510,1510,91.78764343261719,-0.02876303903758526
2809042.826,634014855,220.74,103147170,-0.18813011050224304,-0.12563608586788177,1536,1526,91.65667724609375,-0.03082694299519062
2809142.826,634014855,220.74,103147170,0.05557019263505936,-0.13471713662147522,1510,1510,91.53240966796875,-0.02148248255252838
2809242.826,634014855,220.74,103147171,-0.017259182408452034,-0.14792266488075256,1510,1510,91.42937469482422,-0.019712569192051888
2809342.826,634014855,220.74,103147171,0.07860974222421646,-0.15626126527786255,1510,1510,91.3379898071289,-0.0183077622205019
2809442.826,634014854,220.73,103147172,0.04082112014293671,-0.14582249522209167,1510,1510,91.20759582519531,-0.01659543439745903
2809542.826,634014854,220.73,103147172,0.09241259843111038,-0.20712003111839294,1510,1510,91.09617614746094,-0.01732770912349224
2809642.826,634014854,220.71,103147173,0.024821316823363304,-0.16590377688407898,1510,1510,90.97618865966797,-0.01959857903420925
2809742.826,634014854,220.71,103147173,0.05159354582428932,-0.17191272974014282,1510,1510,90.85769653320312,-0.02042200230062008
2809842.826,634014854,220.71,103147174,-0.013236833736300468,-0.16420608758926392,1510,1510,90.73295593261719,-0.020309774205088615
2809942.826,634014854,220.71,103147174,-0.02398793213069439,-0.17484736442565918,1575,1550,90.63096618652344,-0.019364703446626663
2810042.826,634014854,220.7,103147175,0.02544417791068554,-0.13234156370162964,1510,1510,90.53501892089844,-0.010873440653085709
2810142.826,634014854,220.7,103147175,0.04538054019212723,-0.14267846941947937,1510,1510,90.42288208007812,-0.010382751002907753
2810242.826,634014854,220.69,103147175,0.025972994044423103,-0.19913728535175323,1510,1510,90.33281707763672,-0.013090555556118488
2810342.826,634014854,220.69,103147175,0.05547849088907242,-0.16423127055168152,1523,1518,90.25768280029297,-0.013330002315342426
2810442.826,634014853,220.68,103147176,0.04645734652876854,-0.169295534491539,1535,1525,90.15845489501953,-0.012295202352106571
2810542.826,634014853,220.68,103147176,0.0019422428449615836,-0.18789225816726685,1510,1510,90.07799530029297,-0.010004227049648762
2810642.826,634014853,220.68,103147178,0.0296604223549366,-0.14895451068878174,1510,1510,89.99496459960938,-0.007235363125801086
2810742.826,634014853,220.68,103147178,0.034236691892147064,-0.1651262491941452,1510,1510,89.9215087890625,-0.008671026676893234
2810842.826,634014853,220.67,103147179,0.009010445326566696,-0.17620229721069336,1510,1510,89.86488342285156,-0.010788616724312305
2810942.826,634014853,220.67,103147179,0.029932314530014992,-0.15650086104869843,1510,1510,89.8017578125,-0.011117452755570412
2811042.826,634014853,220.66,103147180,0.0314800888299942,-0.16400013864040375,1518,1515,89.75288391113281,-0.009501480497419834
2811142.826,634014853,220.66,103147180,0.05206534266471863,-0.17140790820121765,1518,1515,89.71495056152344,-0.008046120405197144
2811242.826,634014853,220.65,103147181,-0.02393180876970291,-0.15781548619270325,1525,1519,89.69788360595703,-0.005491320509463549
2811342.826,634014853,220.65,103147181,0.04397202283143997,-0.1617879718542099,1525,1519,89.65613555908203,-0.003884226782247424
2811442.826,634014853,220.64,103147182,-0.007079800590872765,-0.15184490382671356,1580,1554,89.63202667236328,-0.00575543288141489
2811542.826,634014853,220.64,103147182,-0.15185128152370453,-0.1493695080280304,1580,1554,89.68462371826172,-0.0045736124739050865
2811642.826,634014853,220.63,103147182,-0.053797509521245956,-0.15839479863643646,1510,1510,89.74394226074219,0.008451353758573532
2811742.826,634014853,220.63,103147182,0.03671414405107498,-0.1573166847229004,1510,1510,89.7969970703125,0.009997431188821793
2811842.826,634014853,220.62,103147182,0.0009999984176829457,-0.1599503457546234,1510,1510,89.82643127441406,0.007443618029356003
2811942.826,634014853,220.62,103147182,0.07741719484329224,-0.16962656378746033,1510,1510,89.86418914794922,0.007554252166301012
2812042.826,634014853,220.61,103147183,0.05656880885362625,-0.1555320918560028,1510,1510,89.88619232177734,0.00801108404994011
2812142.826,634014853,220.61,103147183,0.08383703231811523,-0.18262887001037598,1510,1510,89.90863037109375,0.008034829050302505
2812242.826,634014853,220.6,103147184,0.03658594191074371,-0.17185507714748383,1510,1510,89.96156311035156,0.007189710158854723
2812342.826,634014853,220.6,103147184,0.040340323001146317,-0.16600173711776733,1510,1510,90.00749969482422,0.006512305699288845
2812442.826,634014853,220.6,103147184,0.0017696453724056482,-0.16174355149269104,1510,1510,90.03593444824219,0.007605004124343395
2812542.826,634014853,220.6,103147184,-0.16756094992160797,-0.14145076274871826,1583,1556,90.19245147705078,0.00903722271323204
2812642.826,634014853,220.59,103147184,0.0021417171228677034,-0.1496787816286087,1510,1510,90.3347396850586,0.024037480354309082
2812742.826,634014853,220.59,103147184,-0.005028401035815477,-0.15486034750938416,1510,1510,90.43397521972656,0.025396347045898438
2812842.826,634014853,220.58,103147184,0.05076415091753006,-0.16123592853546143,1510,1510,90.5330810546875,0.020273223519325256
2812942.826,634014853,220.58,103147184,0.03955964744091034,-0.16605135798454285,1510,1510,90.66451263427734,0.018444478511810303
2813042.826,634014852,220.57,103147185,0.06391344964504242,-0.1885969340801239,1510,1510,90.82012939453125,0.020928464829921722
2813142.826,634014852,220.57,103147185,0.04319082200527191,-0.17360728979110718,1510,1510,90.9704818725586,0.02377682365477085
2813242.826,634014852,220.56,103147185,0.057685818523168564,-0.1667541116476059,1510,1510,91.0862808227539,0.023997822776436806
2813342.826,634014852,220.56,103147185,0.023512348532676697,-0.17117299139499664,1510,1510,91.19754028320312,0.02265406772494316
2813442.826,634014852,220.55,103147186,0.02996525540947914,-0.16559869050979614,1510,1510,91.26940155029297,0.020024152472615242
2813542.826,634014852,220.55,103147186,0.013629458844661713,-0.14968925714492798,1510,1510,91.33513641357422,0.01760408841073513
2813642.826,634014852,220.54,103147186,0.027798423543572426,-0.16835430264472961,1510,1510,91.41293334960938,0.01605471782386303
2813742.826,634014852,220.54,103147186,0.021805953234434128,-0.16157858073711395,1510,1510,91.51780700683594,0.0165020152926445
2813842.826,634014852,220.53,103147186,0.03904354199767113,-0.1633903831243515,1510,1510,91.6443099975586,0.019753040745854378
2813942.826,634014852,220.53,103147186,0.04269199073314667,-0.16786177456378937,1510,1510,91.75623321533203,0.022563032805919647
2814042.826,634014852,220.52,103147187,0.07097166031599045,-0.1700216829776764,1510,1510,91.82844543457031,0.020555203780531883
2814142.826,634014852,220.52,103147187,0.05262213945388794,-0.17276930809020996,1510,1510,91.88092803955078,0.016231006011366844
2814242.826,634014852,220.51,103147187,0.02375711128115654,-0.1643018275499344,1510,1510,91.91608428955078,0.011660435236990452
2814342.826,634014852,220.51,103147187,0.005911524873226881,-0.1578480750322342,1510,1510,92.0149917602539,0.011850688606500626
2814442.826,634014851,220.49,103147189,0.0041229017078876495,-0.1659945845603943,1510,1510,92.1269760131836,0.01633848249912262
2814542.826,634014851,220.49,103147189,0.02774878963828087,-0.16665928065776825,1510,1510,92.23307800292969,0.019939647987484932
2814642.826,634014850,220.47,103147190,0.039893340319395065,-0.16331803798675537,1510,1510,92.31591033935547,0.018340859562158585
2814742.826,634014850,220.47,103147190,0.04354998841881752,-0.15830767154693604,1510,1510,92.39147186279297,0.014916393905878067
2814842.826,634014849,220.44,103147191,0.04100426286458969,-0.1669606864452362,1510,1510,92.4871826171875,0.012288308702409267
2814942.826,634014849,220.44,103147191,0.04080948978662491,-0.1631864458322525,1510,1510,92.53673553466797,0.011307152919471264
2815042.826,634014848,220.42,103147193,0.023896239697933197,-0.16103947162628174,1510,1510,92.60347747802734,0.011668109335005283
2815142.826,634014848,220.42,103147193,0.022293759509921074,-0.17027103900909424,1510,1510,92.68328857421875,0.012915359809994698
2815242.826,634014847,220.4,103147194,0.01708279177546501,-0.17347662150859833,1510,1510,92.77740478515625,0.014758775942027569
2815342.826,634014847,220.4,103147194,0.030961165204644203,-0.1687014102935791,1501,1495,92.86609649658203,0.01516143511980772
2815442.826,634014847,220.39,103147195,0.0366891510784626,-0.16356539726257324,1480,1461,92.90556335449219,0.013031947426497936
2815542.826,634014847,220.39,103147195,0.12018366158008575,-0.14672015607357025,1452,1417,92.89555358886719,0.009614069946110249
2815642.826,634014847,220.38,103147196,-0.004920706152915955,-0.22175490856170654,1501,1495,92.73755645751953,-0.002294164849445224
2815742.826,634014847,220.38,103147196,0.04929625615477562,-0.21580730378627777,1510,1510,92.57479095458984,-0.02311944216489792
2815842.826,634014847,220.37,103147196,-0.06459382176399231,-0.15389350056648254,1510,1510,92.49541473388672,-0.02664591372013092
2815942.826,634014847,220.37,103147196,0.03888543322682381,-0.2049366533756256,1510,1510,92.401123046875,-0.017278509214520454
2816042.826,634014847,220.36,103147197,0.01910143345594406,-0.16159489750862122,1510,1510,92.29424285888672,-0.017144670709967613
2816142.826,634014847,220.36,103147197,0.08139163255691528,-0.14427557587623596,1510,1510,92.11508178710938,-0.02561138942837715
2816242.826,634014847,220.35,103147198,0.017077574506402016,-0.15016083419322968,1510,1510,91.93534851074219,-0.032616086304187775
2816342.826,634014847,220.35,103147198,0.043608348816633224,-0.14482593536376953,1519,1516,91.74311828613281,-0.03240741789340973
2816442.826,634014847,220.34,103147199,0.011333146132528782,-0.14519354701042175,1510,1510,91.59355163574219,-0.02826986461877823
2816542.826,634014847,220.34,103147199,-0.04120773822069168,-0.18259966373443604,1510,1510,91.4921646118164,-0.021144596859812737
2816642.826,634014847,220.33,103147199,0.023328492417931557,-0.16172385215759277,1510,1510,91.40023040771484,-0.015460871160030365
2816742.826,634014847,220.33,103147199,0.0390450581908226,-0.15679430961608887,1545,1532,91.28358459472656,-0.015974512323737144
2816842.826,634014847,220.32,103147200,0.052767690271139145,-0.1926390528678894,1510,1510,91.14566040039062,-0.02087230049073696
2816942.826,634014847,220.32,103147200,0.026318391785025597,-0.1697908341884613,1510,1510,90.9831314086914,-0.02635987475514412
2817042.826,634014847,220.32,103147201,0.04757462814450264,-0.14235150814056396,1510,1510,90.83692169189453,-0.02889121137559414
2817142.826,634014847,220.32,103147201,-0.00019797240383923054,-0.16806825995445251,1510,1510,90.73836517333984,-0.02550806850194931
2817242.826,634014847,220.32,103147202,0.02419324219226837,-0.16573020815849304,1510,1510,90.68546295166016,-0.01808992214500904
2817342.826,634014847,220.32,103147202,0.02830458991229534,-0.14141501486301422,1510,1510,90.59092712402344,-0.012744434177875519
2817442.826,634014846,220.31,103147203,0.05693933740258217,-0.18308109045028687,1510,1510,90.46353912353516,-0.01541580818593502
2817542.826,634014846,220.31,103147203,0.04275061562657356,-0.17222543060779572,1510,1510,90.30648803710938,-0.02388811856508255
2817642.826,634014846,220.3,103147203,0.0292636901140213,-0.15373864769935608,1510,1510,90.1645736694336,-0.029431939125061035
2817742.826,634014846,220.3,103147203,0.0014342603972181678,-0.16852061450481415,1510,1510,90.05816650390625,-0.0260697603225708
2817842.826,634014846,220.3,103147204,0.01690218597650528,-0.167610302567482,1510,1510,89.9625244140625,-0.019397249445319176
2817942.826,634014846,220.3,103147204,0.022761765867471695,-0.16004915535449982,1510,1510,89.8938980102539,-0.01614735648036003
2818042.826,634014846,220.3,103147205,0.0418858528137207,-0.1662587821483612,1510,1510,89.80496215820312,-0.01614639163017273
2818142.826,634014846,220.3,103147205,-0.05326126515865326,-0.1483573019504547,1609,1571,89.76799011230469,-0.018374770879745483
2818242.826,634014846,220.29,103147206,-0.059601325541734695,-0.13037267327308655,1510,1510,89.79130554199219,-0.005958711728453636
2818342.826,634014846,220.29,103147206,0.06687159091234207,-0.14106029272079468,1510,1510,89.7662582397461,0.005353680346161127
2818442.826,634014845,220.29,103147206,-0.007893255911767483,-0.15425927937030792,1510,1510,89.75020599365234,-0.000613128300756216
2818542.826,634014845,220.29,103147206,0.04675576090812683,-0.17755523324012756,1510,1510,89.73968505859375,-0.0006430698558688164
2818642.826,634014845,220.28,103147207,0.0023467261344194412,-0.1490057408809662,1543,1530,89.7718276977539,0.005444786977022886
2818742.826,634014845,220.28,103147207,0.021930895745754242,-0.16944065690040588,1510,1510,89.84101867675781,0.010803679004311562
2818842.826,634014845,220.29,103147207,-0.003798574674874544,-0.17577365040779114,1510,1510,89.89823150634766,0.012738130055367947
2818942.826,634014845,220.29,103147207,0.0690910667181015,-0.16375574469566345,1510,1510,89.90922546386719,0.007293702568858862
2819042.826,634014845,220.28,103147207,0.0049835871905088425,-0.15682145953178406,1510,1510,89.94200897216797,0.000793368904851377
2819142.826,634014845,220.28,103147207,0.039768993854522705,-0.1641554832458496,1510,1510,89.9609146118164,-0.0004176236689090729
2819242.826,634014845,220.29,103147208,0.011128947138786316,-0.14419978857040405,1510,1510,90.00560760498047,0.0035871511790901423
2819342.826,634014845,220.29,103147208,0.05643744394183159,-0.1497277319431305,1510,1510,90.04955291748047,0.007066473364830017
2819442.826,634014845,220.29,103147208,0.03435380011796951,-0.16772043704986572,1510,1510,90.11354064941406,0.007039789110422134
2819542.826,634014845,220.29,103147208,0.052407413721084595,-0.17193588614463806,1510,1510,90.1360855102539,0.005919153802096844
2819642.826,634014845,220.29,103147208,-0.022565491497516632,-0.19168870151042938,1595,1563,90.215087890625,0.004559390712529421
2819742.826,634014845,220.29,103147208,-0.05053113400936127,-0.15356118977069855,1627,1583,90.41571807861328,0.01782788336277008
2819842.826,634014845,220.29,103147208,0.05329499766230583,-0.14401648938655853,1510,1510,90.64897918701172,0.038665689527988434
2819942.826,634014845,220.29,103147208,0.0014250166714191437,-0.14108893275260925,1510,1510,90.86697387695312,0.03797398507595062
2820042.826,634014845,220.29,103147208,0.05068705976009369,-0.16474983096122742,1510,1510,91.08909606933594,0.035227205604314804
2820142.826,634014845,220.29,103147208,0.012759937904775143,-0.15455155074596405,1510,1510,91.32479095458984,0.0384870283305645
2820242.826,634014845,220.29,103147208,0.059290409088134766,-0.19173797965049744,1510,1510,91.54169464111328,0.0415378175675869
2820342.826,634014845,220.29,103147208,0.02892870083451271,-0.19013524055480957,1510,1510,91.75883483886719,0.04065895080566406
2820442.826,634014845,220.28,103147208,0.05615921691060066,-0.16982950270175934,1510,1510,91.97608184814453,0.03787729889154434
2820542.826,634014845,220.28,103147208,0.025643737986683846,-0.171427384018898,1510,1510,92.16944122314453,0.03570013865828514
2820642.826,634014845,220.29,103147208,0.05129116773605347,-0.1704932153224945,1510,1510,92.37413024902344,0.03385034203529358
2820742.826,634014845,220.29,103147208,0.01949937455356121,-0.14743447303771973,1419,1363,92.54273223876953,0.032567672431468964
2820842.826,634014846,220.29,103147208,0.1572858989238739,-0.22524864971637726,1419,1363,92.5240707397461,0.02690088376402855
2820942.826,634014846,220.29,103147208,0.13013821840286255,-0.1661553978919983,1510,1510,92.51453399658203,-0.003567081643268466
2821042.826,634014846,220.29,103147209,-0.005701389629393816,-0.16337330639362335,1510,1510,92.55206298828125,-0.004349709488451481
2821142.826,634014846,220.29,103147209,0.07290472090244293,-0.23543396592140198,1510,1510,92.58992004394531,0.004445275291800499
2821242.826,634014846,220.29,103147210,0.049445778131484985,-0.14992907643318176,1510,1510,92.57499694824219,0.003632426494732499
2821342.826,634014846,220.29,103147210,0.06839961558580399,-0.14987175166606903,1510,1510,92.512939453125,-0.006193356588482857
2821442.826,634014846,220.29,103147211,-0.008831007406115532,-0.16139543056488037,1510,1510,92.4500732421875,-0.013785023242235184
2821542.826,634014846,220.29,103147211,0.0031157301273196936,-0.11934637278318405,1510,1510,92.44757843017578,-0.011594337411224842
2821642.826,634014846,220.29,103147212,0.005246469751000404,-0.15134263038635254,1510,1510,92.45211791992188,-0.004318174906075001
2821742.826,634014846,220.29,103147212,0.04550160467624664,-0.18640385568141937,1510,1510,92.45860290527344,-0.0006244339747354388
2821842.826,634014846,220.29,103147212,0.041118837893009186,-0.15444211661815643,1510,1510,92.4570083618164,-0.0010520521318539977
2821942.826,634014846,220.29,103147212,0.05314222723245621,-0.17669330537319183,1510,1510,92.42720031738281,-0.0016643875278532505
2822042.826,634014847,220.29,103147213,0.042899031192064285,-0.1912660002708435,1510,1510,92.41657257080078,-0.0032852606382220984
2822142.826,634014847,220.29,103147213,0.04331224411725998,-0.15959113836288452,1510,1510,92.36687469482422,-0.008201762102544308
2822242.826,634014847,220.29,103147213,0.01368718221783638,-0.15155334770679474,1510,1510,92.30570220947266,-0.011637544259428978
2822342.826,634014847,220.29,103147213,-0.0026964980643242598,-0.15389183163642883,1510,1510,92.3120346069336,-0.008021719753742218
2822442.826,634014848,220.28,103147214,0.007948385551571846,-0.15115255117416382,1510,1510,92.34413146972656,-0.0005743306828662753
2822542.826,634014848,220.28,103147214,0.041034214198589325,-0.17849504947662354,1510,1510,92.33914184570312,0.0036398894153535366
2822642.826,634014848,220.29,103147214,0.06005760282278061,-0.18194805085659027,1510,1510,92.25970458984375,-0.0001892676664283499
2822742.826,634014848,220.29,103147214,0.05481545627117157,-0.15896698832511902,1510,1510,92.16278839111328,-0.008156602270901203
2822842.826,634014848,220.27,103147216,0.02189534902572632,-0.15378227829933167,1510,1510,92.10128784179688,-0.011876696720719337
2822942.826,634014848,220.27,103147216,0.00930117443203926,-0.16230127215385437,1510,1510,92.0830307006836,-0.00905140396207571
2823042.826,634014847,220.26,103147216,0.0208311527967453,-0.15703889727592468,1510,1510,92.09134674072266,-0.0027195150032639503
2823142.826,634014847,220.26,103147216,0.032369520515203476,-0.16660748422145844,1510,1510,92.1216812133789,0.0005273674032650888
2823242.826,634014848,220.26,103147217,0.037420403212308884,-0.16012585163116455,1510,1510,92.09747314453125,-0.001385582610964775
2823342.826,634014848,220.26,103147217,0.03677070140838623,-0.1572868525981903,1510,1510,92.08026885986328,-0.0052983565255999565
2823442.826,634014847,220.25,103147218,0.028681457042694092,-0.16651085019111633,1510,1510,92.06585693359375,-0.007177508901804686
2823542.826,634014847,220.25,103147218,0.024771559983491898,-0.16661587357521057,1510,1510,92.0457763671875,-0.00738591467961669
2823642.826,634014847,220.25,103147219,0.03381834179162979,-0.1583818793296814,1510,1510,91.99729919433594,-0.0069798994809389114
2823742.826,634014847,220.25,103147219,0.021981941536068916,-0.15906880795955658,1510,1510,91.95304107666016,-0.005872312001883984
2823842.826,634014847,220.25,103147219,0.022570449858903885,-0.15710657835006714,1510,1510,91.93620300292969,-0.002296062186360359
2823942.826,634014847,220.25,103147219,0.04613128677010536,-0.17348195612430573,1510,1510,91.95568084716797,-0.00019085590611211956
2824042.826,634014847,220.24,103147220,0.04557592421770096,-0.1726396232843399,1510,1510,91.91138458251953,-0.0031555667519569397
2824142.826,634014847,220.24,103147220,0.030489768832921982,-0.15522024035453796,1510,1510,91.88117218017578,-0.008341866545379162
2824242.826,634014847,220.22,103147221,0.017193971201777458,-0.1509099155664444,1510,1510,91.8584213256836,-0.009893933311104774
2824342.826,634014847,220.22,103147221,0.008157804608345032,-0.16155755519866943,1510,1510,91.87167358398438,-0.0063675157725811005
2824442.826,634014847,220.22,103147222,0.028857676312327385,-0.17009420692920685,1510,1510,91.8615951538086,-0.002246115356683731
2824542.826,634014847,220.22,103147222,0.03708511218428612,-0.1678861528635025,1510,1510,91.87127685546875,-0.0008840772206895053
2824642.826,634014846,220.21,103147224,0.042502280324697495,-0.160293847322464,1510,1510,91.84530639648438,-0.0037537110038101673
2824742.826,634014846,220.21,103147224,0.04295241832733154,-0.16233491897583008,1510,1510,91.8051528930664,-0.007041490636765957
2824842.826,634014847,220.21,103147225,0.025206241756677628,-0.1635873019695282,1510,1510,91.75786590576172,-0.007670787628740072
2824942.826,634014847,220.21,103147225,0.022120770066976547,-0.1709253042936325,1510,1510,91.7409896850586,-0.006076059769839048
2825042.826,634014847,220.2,103147226,0.025184381753206253,-0.1555769443511963,1510,1510,91.7146224975586,-0.004520365968346596
2825142.826,634014847,220.2,103147226,0.02240731194615364,-0.14720451831817627,1510,1510,91.68292236328125,-0.0041374387219548225
2825242.826,634014846,220.19,103147226,0.028424829244613647,-0.15798677504062653,1510,1510,91.67160034179688,-0.004146995954215527
2825342.826,634014846,220.19,103147226,0.023346154019236565,-0.1683657169342041,1510,1510,91.6594467163086,-0.003968911711126566
2825442.826,634014847,220.19,103147227,0.04163103550672531,-0.16986095905303955,1510,1510,91.63859558105469,-0.004347039852291346
2825542.826,634014847,220.19,103147227,0.03919275104999542,-0.16156688332557678,1510,1510,91.59526062011719,-0.0062290336936712265
2825642.826,634014847,220.19,103147228,0.030083678662776947,-0.15802408754825592,1510,1510,91.59049987792969,-0.007485032081604004
2825742.826,634014847,220.19,103147228,0.010793597437441349,-0.15845362842082977,1510,1510,91.61109924316406,-0.005829493049532175
2825842.826,634014847,220.18,103147228,0.022327516227960587,-0.1664959192276001,1510,1510,91.63182067871094,-0.002231890568509698
2825942.826,634014847,220.18,103147228,0.03965037688612938,-0.1648234874010086,1510,1510,91.62356567382812,-0.001691447221674025
2826042.826,634014848,220.18,103147229,0.038284335285425186,-0.15785138309001923,1510,1510,91.60379028320312,-0.004555648658424616
2826142.826,634014848,220.18,103147229,0.02892788127064705,-0.1508902609348297,1510,1510,91.55170440673828,-0.006367235444486141
2826242.826,634014848,220.18,103147230,0.024655357003211975,-0.1606643944978714,1510,1510,91.52569580078125,-0.0064393868669867516
2826342.826,634014848,220.18,103147230,0.030121363699436188,-0.17545504868030548,1510,1510,91.51883697509766,-0.004671736620366573
2826442.826,634014848,220.18,103147231,0.03264719247817993,-0.1632794439792633,1510,1510,91.50173950195312,-0.0036836592480540276
2826542.826,634014848,220.18,103147231,0.03418160229921341,-0.1611517071723938,1510,1510,91.48844909667969,-0.003891284577548504
2826642.826,634014848,220.18,103147231,0.02912687510251999,-0.16130928695201874,1510,1510,91.48780059814453,-0.004350096918642521
2826742.826,634014848,220.18,103147231,0.025875532999634743,-0.17421866953372955,1510,1510,91.46129608154297,-0.004016533028334379
2826842.826,634014848,220.18,103147232,0.032183609902858734,-0.1725723147392273,1510,1510,91.43911743164062,-0.0043311892077326775
2826942.826,634014848,220.18,103147232,0.03536687791347504,-0.16262298822402954,1510,1510,91.40144348144531,-0.004924854263663292
2827042.826,634014849,220.18,103147232,0.03149068355560303,-0.1531410813331604,1510,1510,91.3731918334961,-0.005805870518088341
2827142.826,634014849,220.18,103147232,0.021261997520923615,-0.15374191105365753,1510,1510,91.39521789550781,-0.004950621165335178
2827242.826,634014849,220.18,103147233,0.02405405044555664,-0.167398139834404,1510,1510,91.43186950683594,-0.0034428646322339773
2827342.826,634014849,220.18,103147233,0.03761273995041847,-0.17218057811260223,1510,1510,91.44039916992188,-0.002925335895270109
2827442.826,634014849,220.18,103147233,0.036396175622940063,-0.1701425462961197,1510,1510,91.41337585449219,-0.0038627302274107933
2827542.826,634014849,220.18,103147233,0.030228598043322563,-0.15716740489006042,1510,1510,91.38217163085938,-0.005546046420931816
2827642.826,634014849,220.19,103147234,0.026707805693149567,-0.16008052229881287,1510,1510,91.36760711669922,-0.005479275248944759
2827742.826,634014849,220.19,103147234,0.029417451471090317,-0.16887909173965454,1510,1510,91.35954284667969,-0.004297791048884392
2827842.826,634014850,220.19,103147235,0.027175508439540863,-0.1695323884487152,1510,1510,91.34490203857422,-0.003516274271532893
2827942.826,634014850,220.19,103147235,0.03650592640042305,-0.15880432724952698,1510,1510,91.31634521484375,-0.003758325008675456
2828042.826,634014850,220.19,103147234,0.028102675452828407,-0.1563188135623932,1510,1510,91.28766632080078,-0.004238121211528778
2828142.826,634014850,220.19,103147234,0.026126813143491745,-0.16260068118572235,1510,1510,91.28225708007812,-0.0041424548253417015
2828242.826,634014850,220.2,103147234,0.032097794115543365,-0.17200559377670288,1510,1510,91.2729721069336,-0.0041040293872356415
2828342.826,634014850,220.2,103147234,0.029328251257538795,-0.1682354211807251,1510,1510,91.27816772460938,-0.004232488106936216
2828442.826,634014850,220.19,103147235,0.02696528658270836,-0.15985648334026337,1510,1510,91.25746154785156,-0.004447456449270248
2828542.826,634014850,220.19,103147235,0.03491181880235672,-0.15255236625671387,1510,1510,91.24771881103516,-0.004222115036100149
2828642.826,634014850,220.2,103147235,0.027179520577192307,-0.16270919144153595,1510,1510,91.23465728759766,-0.003422799054533243
2828742.826,634014850,220.2,103147235,0.032171621918678284,-0.1715744137763977,1510,1510,91.20894622802734,-0.003432024037465453
2828842.826,634014851,220.19,103147236,0.030509471893310547,-0.1579509973526001,1510,1510,91.16697692871094,-0.003696731524541974
2828942.826,634014851,220.19,103147236,0.028262505307793617,-0.15580233931541443,1510,1510,91.12474822998047,-0.0045799268409609795
2829042.826,634014851,220.19,103147237,0.02680075913667679,-0.15739741921424866,1510,1510,91.10962677001953,-0.004822276998311281
2829142.826,634014851,220.19,103147237,0.032396040856838226,-0.1666232943534851,1510,1510,91.11940002441406,-0.004618634469807148
2829242.826,634014851,220.2,103147237,0.019802242517471313,-0.17195993661880493,1510,1510,91.12785339355469,-0.00344970915466547
2829342.826,634014851,220.2,103147237,0.031163211911916733,-0.16802260279655457,1510,1510,91.14715576171875,-0.0032532773911952972
2829442.826,634014851,220.2,103147238,0.02468341775238514,-0.16002269089221954,1510,1510,91.12488555908203,-0.004096148069947958
2829542.826,634014851,220.2,103147238,0.019748413935303688,-0.15926504135131836,1510,1510,91.09812927246094,-0.004306092858314514
2829642.826,634014851,220.2,103147238,0.02924344874918461,-0.1631222516298294,1510,1510,91.07624053955078,-0.0035159841645509005
2829742.826,634014851,220.2,103147238,0.027871988713741302,-0.16819733381271362,1510,1510,91.06202697753906,-0.003450663760304451
2829842.826,634014852,220.2,103147238,0.033110134303569794,-0.16776789724826813,1510,1510,91.0649642944336,-0.00453612394630909
2829942.826,634014852,220.2,103147238,0.0357368141412735,-0.15167729556560516,1510,1510,91.05230712890625,-0.00476041529327631
2830042.826,634014852,220.19,103147238,0.023824427276849747,-0.1580091416835785,1510,1510,91.05962371826172,-0.004107038956135511
2830142.826,634014852,220.19,103147238,0.029825273901224136,-0.1696166694164276,1510,1510,91.0412826538086,-0.0034750699996948242
2830242.826,634014852,220.19,103147239,0.03132655471563339,-0.1675310879945755,1510,1510,91.02674865722656,-0.0037564511876553297
2830342.826,634014852,220.19,103147239,0.03331054374575615,-0.16137443482875824,1510,1510,91.00580596923828,-0.00412545632570982
2830442.826,634014852,220.19,103147240,0.03312333673238754,-0.1604243516921997,1510,1510,90.98731231689453,-0.0044189197942614555
2830542.826,634014852,220.19,103147240,0.02829856239259243,-0.16422095894813538,1510,1510,90.94771575927734,-0.004467478021979332
2830642.826,634014853,220.18,103147241,0.028838563710451126,-0.1653692126274109,1510,1510,90.9452896118164,-0.004018357023596764
2830742.826,634014853,220.18,103147241,0.03078317828476429,-0.1652970016002655,1510,1510,90.92162322998047,-0.004123119171708822
2830842.826,634014853,220.19,103147241,0.024986766278743744,-0.15601424872875214,1510,1510,90.9073715209961,-0.003783860709518194
2830942.826,634014853,220.19,103147241,0.02735399641096592,-0.1563997119665146,1510,1510,90.90953826904297,-0.004327349364757538
2831042.826,634014853,220.18,103147242,0.03374915570020676,-0.1656448394060135,1510,1510,90.8806381225586,-0.004222902934998274
