timestamp(ms),GPS.Lat,GPS.Alt,GPS.Lng,IMU.AccX,IMU.AccY,RCOU.C1,RCOU.C3,DCM.Yaw,IMU.GyrZ
3673262.886,634013689,222.98,103147794,0.033757057040929794,-0.16592398285865784,1510,1510,236.09255981445312,-0.004785244353115559
3673362.886,634013689,222.98,103147794,0.03454943001270294,-0.1639632284641266,1510,1510,236.0774688720703,-0.004587654024362564
3673462.886,634013688,222.98,103147792,0.03517499566078186,-0.16312557458877563,1510,1510,236.05242919921875,-0.004056144971400499
3673562.886,634013688,222.98,103147792,0.029860055074095726,-0.16090622544288635,1510,1510,236.0406494140625,-0.0039850398898124695
3673662.886,634013688,222.98,103147791,0.02888045832514763,-0.16058646142482758,1510,1510,236.03091430664062,-0.00371176446788013
3673762.886,634013688,222.98,103147791,0.028249995782971382,-0.159896582365036,1510,1510,235.99966430664062,-0.004035661928355694
3673862.886,634013688,222.98,103147788,0.02719670720398426,-0.1577545404434204,1510,1510,235.97967529296875,-0.004141570068895817
3673962.886,634013688,222.98,103147788,0.026685966178774834,-0.15518394112586975,1510,1510,235.9664306640625,-0.004450696054846048
3674062.886,634013688,222.98,103147787,0.03673329949378967,-0.16323070228099823,1510,1510,235.94113159179688,-0.004570674616843462
3674162.886,634013688,222.98,103147787,0.02881631627678871,-0.16181832551956177,1510,1510,235.90194702148438,-0.004778397269546986
3674262.886,634013687,222.98,103147784,0.030242057517170906,-0.16317850351333618,1510,1510,235.86480712890625,-0.004797251895070076
3674362.886,634013687,222.98,103147784,0.036141227930784225,-0.16594001650810242,1510,1510,235.84140014648438,-0.0045892102643847466
3674462.886,634013687,222.98,103147782,0.029709190130233765,-0.16369320452213287,1510,1510,235.8292999267578,-0.004477404523640871
3674562.886,634013687,222.98,103147782,0.03324258327484131,-0.1671367734670639,1510,1510,235.8104248046875,-0.00428878515958786
3674662.886,634013687,222.98,103147781,0.02709435671567917,-0.1587810218334198,1510,1510,235.78323364257812,-0.003747949143871665
3674762.886,634013687,222.98,103147781,0.033027440309524536,-0.15492799878120422,1510,1510,235.7659912109375,-0.003776712343096733
3674862.886,634013686,222.98,103147779,0.026087448000907898,-0.16087426245212555,1510,1510,235.76022338867188,-0.004229456651955843
3674962.886,634013686,222.98,103147779,0.022246479988098145,-0.15140299499034882,1510,1510,235.7497100830078,-0.004292596597224474
3675062.886,634013686,222.98,103147776,0.03344068303704262,-0.15889889001846313,1510,1510,235.7257080078125,-0.004368633031845093
3675162.886,634013686,222.98,103147776,0.03074519708752632,-0.16210652887821198,1510,1510,235.70555114746094,-0.004771586507558823
3675262.886,634013686,222.98,103147775,0.03535998612642288,-0.16736848652362823,1510,1510,235.69180297851562,-0.0043387808836996555
3675362.886,634013686,222.98,103147775,0.034548498690128326,-0.16496175527572632,1510,1510,235.660888671875,-0.0042766397818923
3675462.886,634013685,222.97,103147773,0.03331122174859047,-0.171296164393425,1510,1510,235.63905334472656,-0.004563463851809502
3675562.886,634013685,222.97,103147773,0.028597194701433182,-0.1519874632358551,1510,1510,235.62448120117188,-0.004520147107541561
3675662.886,634013686,222.98,103147771,0.029775520786643028,-0.15074953436851501,1510,1510,235.61097717285156,-0.004156320821493864
3675762.886,634013686,222.98,103147771,0.023295901715755463,-0.15556636452674866,1510,1510,235.57603454589844,-0.003854438429698348
3675862.886,634013685,222.98,103147769,0.02951746992766857,-0.1528359055519104,1510,1510,235.5524444580078,-0.0036382186226546764
3675962.886,634013685,222.98,103147769,0.034470099955797195,-0.16163557767868042,1510,1510,235.53543090820312,-0.0032794347498565912
3676062.886,634013685,222.98,103147767,0.033709846436977386,-0.16419166326522827,1510,1510,235.51995849609375,-0.004061485640704632
3676162.886,634013685,222.98,103147767,0.034640710800886154,-0.16623669862747192,1510,1510,235.49771118164062,-0.004877124913036823
3676262.886,634013685,222.98,103147765,0.030789563432335854,-0.17016887664794922,1510,1510,235.48110961914062,-0.0050410195253789425
3676362.886,634013685,222.98,103147765,0.028240498155355453,-0.16699719429016113,1510,1510,235.49388122558594,-0.004921673331409693
3676462.886,634013684,222.97,103147763,0.027272064238786697,-0.167284294962883,1510,1510,235.50927734375,-0.004460513591766357
3676562.886,634013684,222.97,103147763,0.03712693229317665,-0.16627724468708038,1510,1510,235.51336669921875,-0.004308513831347227
3676662.886,634013684,222.97,103147762,0.02953949198126793,-0.16622810065746307,1510,1510,235.51162719726562,-0.0039286138489842415
3676762.886,634013684,222.97,103147762,0.03628545254468918,-0.15436899662017822,1510,1510,235.5023193359375,-0.0040603759698569775
3676862.886,634013684,222.98,103147760,0.025016745552420616,-0.15403364598751068,1510,1510,235.5026397705078,-0.004226881079375744
3676962.886,634013684,222.98,103147760,0.030870985239744186,-0.15097178518772125,1510,1510,235.5014190673828,-0.004286531358957291
3677062.886,634013683,222.98,103147758,0.029559262096881866,-0.1473398506641388,1510,1510,235.45925903320312,-0.00438096234574914
3677162.886,634013683,222.98,103147758,0.024703841656446457,-0.15836045145988464,1510,1510,235.43276977539062,-0.004347345791757107
3677262.886,634013683,222.98,103147757,0.03301824629306793,-0.16053950786590576,1510,1510,235.42059326171875,-0.004710739012807608
3677362.886,634013683,222.98,103147757,0.028895361348986626,-0.16302993893623352,1510,1510,235.38839721679688,-0.0046500833705067635
3677462.886,634013683,222.97,103147755,0.03798529878258705,-0.1625799983739853,1510,1510,235.36856079101562,-0.004774260334670544
3677562.886,634013683,222.97,103147755,0.032797571271657944,-0.16738693416118622,1510,1510,235.37255859375,-0.004479806404560804
3677662.886,634013683,222.98,103147754,0.03688659518957138,-0.16132967174053192,1510,1510,235.36270141601562,-0.004407614003866911
3677762.886,634013683,222.98,103147754,0.031143663451075554,-0.1579774171113968,1510,1510,235.36642456054688,-0.004479692317545414
3677862.886,634013682,222.98,103147752,0.029367845505475998,-0.15404725074768066,1510,1510,235.3522491455078,-0.004155004397034645
3677962.886,634013682,222.98,103147752,0.030195416882634163,-0.15240012109279633,1510,1510,235.34805297851562,-0.0041726622730493546
3678062.886,634013682,222.97,103147751,0.027612637728452682,-0.15672960877418518,1510,1510,235.33360290527344,-0.0044456105679273605
3678162.886,634013682,222.97,103147751,0.03323574736714363,-0.16118095815181732,1510,1510,235.310791015625,-0.004795844666659832
3678262.886,634013682,222.97,103147750,0.036069490015506744,-0.1623350977897644,1510,1510,235.28192138671875,-0.0049263485707342625
3678362.886,634013682,222.97,103147750,0.02874976024031639,-0.16407935321331024,1510,1510,235.2662353515625,-0.005200264044106007
3678462.886,634013682,222.98,103147748,0.03203978016972542,-0.16262125968933105,1510,1510,235.2608184814453,-0.005218103062361479
3678562.886,634013682,222.98,103147748,0.033045656979084015,-0.16448631882667542,1510,1510,235.23622131347656,-0.004930888302624226
3678662.886,634013681,222.98,103147748,0.03260897472500801,-0.16800683736801147,1510,1510,235.2014923095703,-0.004379224497824907
3678762.886,634013681,222.98,103147748,0.03103792667388916,-0.1584283858537674,1510,1510,235.19195556640625,-0.0037725181318819523
3678862.886,634013681,222.98,103147746,0.03888680785894394,-0.1602475792169571,1510,1510,235.17906188964844,-0.003847955958917737
3678962.886,634013681,222.98,103147746,0.03592866659164429,-0.1584002673625946,1510,1510,235.16407775878906,-0.004286987707018852
3679062.886,634013681,222.98,103147744,0.031918082386255264,-0.15797415375709534,1510,1510,235.13226318359375,-0.00463265972211957
3679162.886,634013681,222.98,103147744,0.031723979860544205,-0.15090250968933105,1510,1510,235.1109619140625,-0.005152350291609764
3679262.886,634013680,222.98,103147743,0.02603927254676819,-0.17144399881362915,1510,1510,235.08587646484375,-0.005135430954396725
3679362.886,634013680,222.98,103147743,0.02718094363808632,-0.16610313951969147,1510,1510,235.06167602539062,-0.004945353139191866
3679462.886,634013680,222.97,103147741,0.04244363307952881,-0.167452871799469,1510,1510,235.04205322265625,-0.004826282151043415
3679562.886,634013680,222.97,103147741,0.03412733972072601,-0.15908241271972656,1510,1510,235.01431274414062,-0.00477199163287878
3679662.886,634013680,222.98,103147739,0.035851944237947464,-0.15740616619586945,1510,1510,234.98651123046875,-0.004860504064708948
3679762.886,634013680,222.98,103147739,0.035989485681056976,-0.160952627658844,1510,1510,234.98126220703125,-0.005185749847441912
3679862.886,634013679,222.97,103147737,0.02648695558309555,-0.1579049974679947,1510,1510,234.967529296875,-0.004426112398505211
3679962.886,634013679,222.97,103147737,0.03201897069811821,-0.15744730830192566,1510,1510,234.93841552734375,-0.004227327648550272
3680062.886,634013679,222.97,103147736,0.03278130292892456,-0.15848098695278168,1510,1510,234.92530822753906,-0.004185414407402277
3680162.886,634013679,222.97,103147736,0.029674142599105835,-0.16344434022903442,1510,1510,234.89459228515625,-0.0047970362938940525
3680262.886,634013678,222.97,103147734,0.03154393285512924,-0.16560614109039307,1510,1510,234.86740112304688,-0.005501674022525549
3680362.886,634013678,222.97,103147734,0.024800678715109825,-0.1667361706495285,1510,1510,234.83975219726562,-0.005596510134637356
3680462.886,634013678,222.97,103147732,0.026226820424199104,-0.16544462740421295,1510,1510,234.81021118164062,-0.0053775799460709095
3680562.886,634013678,222.97,103147732,0.03221406787633896,-0.1637873351573944,1510,1510,234.7994384765625,-0.005047131795436144
3680662.886,634013678,222.97,103147731,0.036112695932388306,-0.15744514763355255,1510,1510,234.81112670898438,-0.0050018904730677605
3680762.886,634013678,222.97,103147731,0.0358274020254612,-0.1619577705860138,1510,1510,234.82150268554688,-0.004927486646920443
3680862.886,634013678,222.96,103147729,0.026076946407556534,-0.16073323786258698,1510,1510,234.8001708984375,-0.005513572134077549
3680962.886,634013678,222.96,103147729,0.028692657127976418,-0.1599077731370926,1510,1510,234.7860107421875,-0.0055799479596316814
3681062.886,634013677,222.96,103147727,0.02622387185692787,-0.1599162220954895,1510,1510,234.75543212890625,-0.005345788784325123
3681162.886,634013677,222.96,103147727,0.027039607986807823,-0.15815387666225433,1510,1510,234.7506103515625,-0.005429089069366455
3681262.886,634013677,222.96,103147725,0.025562379509210587,-0.1643768846988678,1510,1510,234.73167419433594,-0.005293326918035746
3681362.886,634013677,222.96,103147725,0.0380573533475399,-0.15813788771629333,1510,1510,234.70053100585938,-0.0055911727249622345
3681462.886,634013677,222.96,103147724,0.03507789969444275,-0.1643899381160736,1510,1510,234.67715454101562,-0.005455696489661932
3681562.886,634013677,222.96,103147724,0.03567584231495857,-0.16902434825897217,1510,1510,234.65936279296875,-0.0057298061437904835
3681662.886,634013676,222.96,103147722,0.042034298181533813,-0.16282272338867188,1510,1510,234.64666748046875,-0.00548322219401598
3681762.886,634013676,222.96,103147722,0.025741899386048317,-0.16455678641796112,1510,1510,234.63058471679688,-0.00558438990265131
3681862.886,634013676,222.96,103147720,0.03013107180595398,-0.1586393117904663,1510,1510,234.61904907226562,-0.005323759280145168
3681962.886,634013676,222.96,103147720,0.027241526171565056,-0.16543498635292053,1510,1510,234.64215087890625,-0.0052929893136024475
3682062.886,634013675,222.96,103147719,0.032320890575647354,-0.16077375411987305,1510,1510,234.64321899414062,-0.0055791400372982025
3682162.886,634013675,222.96,103147719,0.027048945426940918,-0.156009241938591,1510,1510,234.61447143554688,-0.005806582048535347
3682262.886,634013675,222.95,103147717,0.03236740827560425,-0.15457287430763245,1510,1510,234.59542846679688,-0.005719507113099098
3682362.886,634013675,222.95,103147717,0.027680957689881325,-0.15288327634334564,1510,1510,234.56369018554688,-0.005719569977372885
3682462.886,634013675,222.96,103147716,0.034532081335783005,-0.1593315601348877,1510,1510,234.55441284179688,-0.006075607612729073
3682562.886,634013675,222.96,103147716,0.0362619087100029,-0.1565628945827484,1510,1510,234.51959228515625,-0.005876394920051098
3682662.886,634013674,222.96,103147715,0.0356045663356781,-0.1608811616897583,1510,1510,234.46221923828125,-0.005808371119201183
3682762.886,634013674,222.96,103147715,0.04011159390211105,-0.16216948628425598,1510,1510,234.41766357421875,-0.005445781629532576
3682862.886,634013674,222.96,103147713,0.04068377614021301,-0.17043326795101166,1510,1510,234.36904907226562,-0.006082430016249418
3682962.886,634013674,222.96,103147713,0.030087705701589584,-0.1718667447566986,1510,1510,234.30667114257812,-0.0060691749677062035
3683062.886,634013673,222.96,103147712,0.03165549784898758,-0.16533823311328888,1510,1510,234.26840209960938,-0.006299876142293215
3683162.886,634013673,222.96,103147712,0.032180797308683395,-0.16670538485050201,1510,1510,234.2319793701172,-0.006352819036692381
3683262.886,634013673,222.95,103147710,0.027963776141405106,-0.1543700397014618,1510,1510,234.1967315673828,-0.005728811025619507
3683362.886,634013673,222.95,103147710,0.030115829780697823,-0.15523679554462433,1510,1510,234.14620971679688,-0.0056704874150455
3683462.886,634013673,222.95,103147709,0.03659459948539734,-0.1480022668838501,1510,1510,234.124267578125,-0.005600299686193466
3683562.886,634013673,222.95,103147709,0.03951768949627876,-0.15140146017074585,1510,1510,234.10513305664062,-0.006274767220020294
3683662.886,634013673,222.95,103147708,0.034546658396720886,-0.15493527054786682,1510,1510,234.08120727539062,-0.00633424986153841
3683762.886,634013673,222.95,103147708,0.03623637929558754,-0.16392409801483154,1510,1510,234.06539916992188,-0.006452800240367651
3683862.886,634013672,222.95,103147706,0.03303298354148865,-0.1697598099708557,1510,1510,234.04547119140625,-0.006494126282632351
3683962.886,634013672,222.95,103147706,0.03402971103787422,-0.17891757190227509,1510,1510,234.02871704101562,-0.006095093209296465
3684062.886,634013672,222.95,103147705,0.025929421186447144,-0.17402973771095276,1510,1510,234.00732421875,-0.0056931618601083755
3684162.886,634013672,222.95,103147705,0.02876707911491394,-0.16277162730693817,1510,1510,233.99871826171875,-0.0057912226766347885
3684262.886,634013672,222.95,103147703,0.02636089362204075,-0.164030060172081,1510,1510,233.98573303222656,-0.006170365959405899
3684362.886,634013672,222.95,103147703,0.028531808406114578,-0.16063666343688965,1510,1510,233.959716796875,-0.006146128289401531
3684462.886,634013671,222.95,103147702,0.027686789631843567,-0.14845669269561768,1510,1510,233.942138671875,-0.0061231572180986404
3684562.886,634013671,222.95,103147702,0.03285444900393486,-0.14924800395965576,1510,1510,233.9072265625,-0.00595222320407629
3684662.886,634013671,222.95,103147701,0.03152810409665108,-0.14931075274944305,1510,1510,233.8740234375,-0.005942528136074543
3684762.886,634013671,222.95,103147701,0.03389480710029602,-0.1555580496788025,1510,1510,233.84097290039062,-0.006130253430455923
3684862.886,634013671,222.95,103147699,0.02198570966720581,-0.1624319851398468,1510,1510,233.81167602539062,-0.006835410837084055
3684962.886,634013671,222.95,103147699,0.03515525162220001,-0.17547418177127838,1510,1510,233.78533935546875,-0.007203542627394199
3685062.886,634013671,222.95,103147697,0.02983764186501503,-0.18276891112327576,1510,1510,233.75735473632812,-0.007192309945821762
3685162.886,634013671,222.95,103147697,0.034078650176525116,-0.17329061031341553,1510,1510,233.72982788085938,-0.006532459985464811
3685262.886,634013670,222.95,103147695,0.03977685049176216,-0.16865412890911102,1510,1510,233.69448852539062,-0.00662066088989377
3685362.886,634013670,222.95,103147695,0.03292964771389961,-0.16013029217720032,1510,1510,233.6748046875,-0.006382646504789591
3685462.886,634013670,222.95,103147694,0.030397595837712288,-0.15274155139923096,1510,1510,233.64883422851562,-0.006293087732046843
3685562.886,634013670,222.95,103147694,0.03343050181865692,-0.15069986879825592,1510,1510,233.62619018554688,-0.005857003852725029
3685662.886,634013669,222.95,103147693,0.033388055860996246,-0.15180951356887817,1510,1510,233.59683227539062,-0.006021006964147091
3685762.886,634013669,222.95,103147693,0.03838476911187172,-0.14328739047050476,1510,1510,233.5661163330078,-0.006000339984893799
3685862.886,634013669,222.95,103147691,0.02746185101568699,-0.1556781828403473,1510,1510,233.5389404296875,-0.006718223448842764
3685962.886,634013669,222.95,103147691,0.03173539415001869,-0.15778037905693054,1510,1510,233.51718139648438,-0.007152251433581114
3686062.886,634013669,222.95,103147689,0.03315287083387375,-0.16994374990463257,1510,1510,233.47166442871094,-0.007232663221657276
3686162.886,634013669,222.95,103147689,0.026686614379286766,-0.17697882652282715,1510,1510,233.42654418945312,-0.0073123108595609665
3686262.886,634013668,222.95,103147688,0.034917399287223816,-0.17858010530471802,1510,1510,233.38845825195312,-0.007248541805893183
3686362.886,634013668,222.95,103147688,0.03099776618182659,-0.17124465107917786,1510,1510,233.35711669921875,-0.007066958583891392
3686462.886,634013668,222.95,103147687,0.028618749231100082,-0.16407720744609833,1510,1510,233.33816528320312,-0.007058714982122183
3686562.886,634013668,222.95,103147687,0.028473030775785446,-0.15160499513149261,1510,1510,233.31234741210938,-0.0065198964439332485
3686662.886,634013667,222.95,103147685,0.0268094502389431,-0.14055609703063965,1510,1510,233.2781524658203,-0.0059162890538573265
3686762.886,634013667,222.95,103147685,0.027773087844252586,-0.13934734463691711,1510,1510,233.2493896484375,-0.005865265615284443
3686862.886,634013667,222.95,103147684,0.03221632167696953,-0.14881452918052673,1510,1510,233.20655822753906,-0.006067685317248106
3686962.886,634013667,222.95,103147684,0.029482940211892128,-0.15829512476921082,1510,1510,233.146484375,-0.007042390294373035
3687062.886,634013667,222.95,103147682,0.030641796067357063,-0.1640961468219757,1510,1510,233.146484375,-0.0076535483822226524
3687162.886,634013667,222.95,103147682,0.03509651869535446,-0.17747074365615845,1510,1510,233.11459350585938,-0.0075971209444105625
3687262.886,634013666,222.96,103147682,0.03770991787314415,-0.1834712028503418,1510,1510,233.0692138671875,-0.008012272417545319
3687362.886,634013666,222.96,103147682,0.03629922494292259,-0.174102783203125,1510,1510,233.03610229492188,-0.007492922246456146
3687462.886,634013666,222.96,103147680,0.02842361107468605,-0.1712924838066101,1510,1510,232.99810791015625,-0.006935681216418743
3687562.886,634013666,222.96,103147680,0.020839516073465347,-0.1524640917778015,1510,1510,232.97943115234375,-0.0063362810760736465
3687662.886,634013665,222.96,103147678,0.03373672068119049,-0.14200279116630554,1510,1510,232.96945190429688,-0.006315681152045727
3687762.886,634013665,222.96,103147678,0.03130330517888069,-0.13920605182647705,1510,1510,232.9533233642578,-0.006412368733435869
3687862.886,634013665,222.96,103147677,0.028116295114159584,-0.1501941978931427,1510,1510,232.93533325195312,-0.006893198937177658
3687962.886,634013665,222.96,103147677,0.037725236266851425,-0.1565556824207306,1510,1510,232.90646362304688,-0.007878737524151802
3688062.886,634013664,222.96,103147676,0.03389706835150719,-0.17071855068206787,1510,1510,232.88314819335938,-0.00814733374863863
3688162.886,634013664,222.96,103147676,0.03123324364423752,-0.17366844415664673,1510,1510,232.84854125976562,-0.00827985443174839
3688262.886,634013664,222.97,103147675,0.038559749722480774,-0.176777645945549,1510,1510,232.79217529296875,-0.008069118484854698
3688362.886,634013664,222.97,103147675,0.031943656504154205,-0.16362085938453674,1510,1510,232.76797485351562,-0.00708099827170372
3688462.886,634013663,222.96,103147673,0.022470837458968163,-0.15632522106170654,1510,1510,232.72828674316406,-0.006743123754858971
3688562.886,634013663,222.96,103147673,0.027005966752767563,-0.14704379439353943,1510,1510,232.718017578125,-0.00686114514246583
3688662.886,634013663,222.97,103147672,0.029609842225909233,-0.1475416123867035,1510,1510,232.69529724121094,-0.007063642144203186
3688762.886,634013663,222.97,103147672,0.025297243148088455,-0.15614433586597443,1510,1510,232.66709899902344,-0.007574424147605896
3688862.886,634013663,222.97,103147670,0.02890038676559925,-0.16103021800518036,1510,1510,232.63909912109375,-0.007889142259955406
3688962.886,634013663,222.97,103147670,0.03432018309831619,-0.16784994304180145,1510,1510,232.5849609375,-0.007993429899215698
3689062.886,634013662,222.98,103147669,0.03512520343065262,-0.17394237220287323,1510,1510,232.55239868164062,-0.007845291867852211
3689162.886,634013662,222.98,103147669,0.030823253095149994,-0.1730000525712967,1510,1510,232.527099609375,-0.008069153875112534
3689262.886,634013662,222.98,103147667,0.024052778258919716,-0.17499303817749023,1510,1510,232.50595092773438,-0.007647211197763681
3689362.886,634013662,222.98,103147667,0.030658187344670296,-0.16213873028755188,1510,1510,232.46078491210938,-0.007643596269190311
3689462.886,634013662,222.98,103147666,0.029706858098506927,-0.15755148231983185,1510,1510,232.4284210205078,-0.0075037432834506035
3689562.886,634013662,222.98,103147666,0.032830603420734406,-0.15310873091220856,1510,1510,232.38525390625,-0.007069548591971397
3689662.886,634013661,222.99,103147665,0.031051214784383774,-0.1447201520204544,1510,1510,232.32870483398438,-0.007870706729590893
3689762.886,634013661,222.99,103147665,0.04160452261567116,-0.15603548288345337,1510,1510,232.2576141357422,-0.007978500798344612
3689862.886,634013661,222.99,103147663,0.030568094924092293,-0.16913311183452606,1510,1510,232.2286376953125,-0.008314002305269241
3689962.886,634013661,222.99,103147663,0.02932633087038994,-0.16579760611057281,1510,1510,232.20053100585938,-0.008035472594201565
3690062.886,634013661,222.98,103147662,0.02962455525994301,-0.1746903955936432,1510,1510,232.18222045898438,-0.00781712681055069
3690162.886,634013661,222.98,103147662,0.02989322505891323,-0.17171144485473633,1510,1510,232.1522216796875,-0.008007953874766827
3690262.886,634013661,222.99,103147660,0.026700634509325027,-0.15199802815914154,1510,1510,232.1162109375,-0.008497185073792934
3690362.886,634013661,222.99,103147660,0.028504973277449608,-0.15325728058815002,1510,1510,232.08860778808594,-0.008216658607125282
3690462.886,634013660,222.99,103147659,0.03139949589967728,-0.1509620100259781,1510,1510,232.0633544921875,-0.007478509563952684
3690562.886,634013660,222.99,103147659,0.040584489703178406,-0.15392830967903137,1510,1510,232.02822875976562,-0.0073776692152023315
3690662.886,634013660,222.99,103147657,0.04391428455710411,-0.15604645013809204,1510,1510,231.98487854003906,-0.007879935204982758
3690762.886,634013660,222.99,103147657,0.029576122760772705,-0.16278164088726044,1510,1510,231.94219970703125,-0.007771194446831942
3690862.886,634013659,223,103147656,0.033997513353824615,-0.16873665153980255,1510,1510,231.915771484375,-0.008331315591931343
3690962.886,634013659,223,103147656,0.0241174828261137,-0.16499149799346924,1510,1510,231.88543701171875,-0.008297795429825783
3691062.886,634013659,223,103147654,0.028440997004508972,-0.1706414371728897,1510,1510,231.8553924560547,-0.008244912140071392
3691162.886,634013659,223,103147654,0.03320849686861038,-0.1644199937582016,1510,1510,231.83218383789062,-0.008136722259223461
3691262.886,634013658,223,103147653,0.03635780140757561,-0.15856528282165527,1510,1510,231.8121795654297,-0.00786471925675869
3691362.886,634013658,223,103147653,0.04268718138337135,-0.14859022200107574,1510,1510,231.78590393066406,-0.008000746369361877
3691462.886,634013658,223,103147652,0.041533954441547394,-0.15713170170783997,1510,1510,231.74063110351562,-0.0077745793387293816
3691562.886,634013658,223,103147652,0.03689110279083252,-0.14856445789337158,1510,1510,231.6952362060547,-0.008674337528645992
3691662.886,634013657,223,103147650,0.0324869304895401,-0.16059190034866333,1510,1510,231.6680145263672,-0.008406287059187889
3691762.886,634013657,223,103147650,0.023393966257572174,-0.1609625369310379,1510,1510,231.62420654296875,-0.008929912000894547
3691862.886,634013656,222.98,103147650,0.026275966316461563,-0.16461363434791565,1510,1510,231.5802001953125,-0.008499037474393845
3691962.886,634013656,222.98,103147650,0.024348869919776917,-0.1672915369272232,1510,1510,231.55357360839844,-0.008172350004315376
3692062.886,634013656,222.99,103147649,0.027163852006196976,-0.15128546953201294,1510,1510,231.51876831054688,-0.008019073866307735
3692162.886,634013656,222.99,103147649,0.03275548666715622,-0.1586984246969223,1510,1510,231.4619903564453,-0.00832408107817173
3692262.886,634013655,222.98,103147647,0.03828675299882889,-0.15728197991847992,1510,1510,231.4217071533203,-0.008500821888446808
3692362.886,634013655,222.98,103147647,0.036261703819036484,-0.14956974983215332,1510,1510,231.3978729248047,-0.00855060014873743
3692462.886,634013654,222.99,103147646,0.03883606195449829,-0.1643373817205429,1510,1510,231.36415100097656,-0.009091752581298351
3692562.886,634013654,222.99,103147646,0.024506090208888054,-0.16635923087596893,1510,1510,231.31532287597656,-0.009295576252043247
3692662.886,634013654,222.98,103147645,0.033577900379896164,-0.16834969818592072,1510,1510,231.2876434326172,-0.008690262213349342
3692762.886,634013654,222.98,103147645,0.030259596183896065,-0.16392913460731506,1510,1510,231.26805114746094,-0.008424412459135056
3692862.886,634013653,222.99,103147644,0.02542087249457836,-0.16075499355793,1510,1510,231.22415161132812,-0.008398931473493576
3692962.886,634013653,222.99,103147644,0.023842567577958107,-0.1528644859790802,1510,1510,231.18362426757812,-0.00906185433268547
3693062.886,634013653,222.99,103147643,0.03284912928938866,-0.15746796131134033,1510,1510,231.16192626953125,-0.009149542078375816
3693162.886,634013653,222.99,103147643,0.036162540316581726,-0.15150922536849976,1510,1510,231.152587890625,-0.009072856977581978
3693262.886,634013653,222.99,103147641,0.03940565511584282,-0.15787217020988464,1510,1510,231.11434936523438,-0.008811402134597301
3693362.886,634013653,222.99,103147641,0.04518501088023186,-0.15744850039482117,1510,1510,231.06411743164062,-0.009259156882762909
3693462.886,634013652,222.99,103147640,0.0390053428709507,-0.16659826040267944,1510,1510,231.01593017578125,-0.009602376259863377
3693562.886,634013652,222.99,103147640,0.025478431954979897,-0.16981393098831177,1510,1510,230.96298217773438,-0.009587753564119339
3693662.886,634013652,222.99,103147639,0.018275249749422073,-0.16833454370498657,1510,1510,230.93063354492188,-0.009239587001502514
3693762.886,634013652,222.99,103147639,0.020664174109697342,-0.17073777318000793,1510,1510,230.90858459472656,-0.009039966389536858
3693862.886,634013652,223,103147638,0.024522587656974792,-0.16439467668533325,1510,1510,230.88424682617188,-0.008917391300201416
3693962.886,634013652,223,103147638,0.03389587253332138,-0.15600882470607758,1510,1510,230.83653259277344,-0.009357621893286705
3694062.886,634013652,223,103147637,0.03295989707112312,-0.1487163007259369,1510,1510,230.78790283203125,-0.009409358724951744
3694162.886,634013652,223,103147637,0.039996564388275146,-0.16333919763565063,1510,1510,230.7505340576172,-0.009491945616900921
3694262.886,634013652,223,103147635,0.03381260111927986,-0.159098818898201,1510,1510,230.6972198486328,-0.00964509416371584
3694362.886,634013652,223,103147635,0.03900642320513725,-0.15907025337219238,1510,1510,230.64622497558594,-0.01004360243678093
3694462.886,634013651,222.99,103147634,0.035567350685596466,-0.16427795588970184,1510,1510,230.6091766357422,-0.010097699239850044
3694562.886,634013651,222.99,103147634,0.03112693876028061,-0.1710645854473114,1510,1510,230.5643768310547,-0.009625101462006569
3694662.886,634013650,223,103147633,0.027333421632647514,-0.1695404052734375,1510,1510,230.5084991455078,-0.009381583891808987
3694762.886,634013650,223,103147633,0.026906119659543037,-0.16219478845596313,1510,1510,230.46731567382812,-0.009237188845872879
3694862.886,634013650,223,103147631,0.031048471108078957,-0.15986895561218262,1510,1510,230.42095947265625,-0.009428635239601135
3694962.886,634013650,223,103147631,0.029438134282827377,-0.15370839834213257,1510,1510,230.36476135253906,-0.009382329881191254
3695062.886,634013649,223,103147630,0.03353862836956978,-0.15570029616355896,1510,1510,230.31761169433594,-0.009954624809324741
3695162.886,634013649,223,103147630,0.031228357926011086,-0.15586721897125244,1510,1510,230.28668212890625,-0.010177625343203545
3695262.886,634013649,223,103147628,0.039094261825084686,-0.15216760337352753,1510,1510,230.25283813476562,-0.010229641571640968
3695362.886,634013649,223,103147628,0.03440083563327789,-0.16341851651668549,1510,1510,230.22027587890625,-0.010202204808592796
3695462.886,634013648,223,103147626,0.03135278820991516,-0.17343835532665253,1510,1510,230.16026306152344,-0.010370281524956226
3695562.886,634013648,223,103147626,0.028948914259672165,-0.1698743849992752,1510,1510,230.08901977539062,-0.009919305332005024
3695662.886,634013648,222.99,103147625,0.019595952704548836,-0.1663627177476883,1510,1510,230.03163146972656,-0.01000711228698492
3695762.886,634013648,222.99,103147625,0.02560657262802124,-0.16673137247562408,1510,1510,230.00181579589844,-0.010417494922876358
3695862.886,634013648,222.99,103147624,0.03081108070909977,-0.16004341840744019,1510,1510,229.95875549316406,-0.010286306031048298
3695962.886,634013648,222.99,103147624,0.031165746971964836,-0.15268269181251526,1510,1510,229.9080047607422,-0.010193459689617157
3696062.886,634013647,222.99,103147622,0.03693969547748566,-0.1458137035369873,1510,1510,229.86228942871094,-0.010258782655000687
3696162.886,634013647,222.99,103147622,0.03941405564546585,-0.15631304681301117,1510,1510,229.8225860595703,-0.01043032482266426
3696262.886,634013647,222.98,103147621,0.037108149379491806,-0.16265641152858734,1510,1510,229.75625610351562,-0.010635072365403175
3696362.886,634013647,222.98,103147621,0.03079724870622158,-0.175326868891716,1510,1510,229.70840454101562,-0.010476778261363506
3696462.886,634013646,222.98,103147619,0.024144187569618225,-0.17097130417823792,1510,1510,229.6433868408203,-0.010832328349351883
3696562.886,634013646,222.98,103147619,0.026895683258771896,-0.16441698372364044,1510,1510,229.5970458984375,-0.01079950574785471
3696662.886,634013646,222.99,103147619,0.02303038164973259,-0.15495795011520386,1510,1510,229.56430053710938,-0.010735085234045982
3696762.886,634013646,222.99,103147619,0.030040139332413673,-0.1566491574048996,1510,1510,229.5159454345703,-0.01072376687079668
3696862.886,634013646,222.98,103147617,0.03254453092813492,-0.1572939157485962,1510,1510,229.44744873046875,-0.010687174275517464
3696962.886,634013646,222.98,103147617,0.03597559779882431,-0.15638330578804016,1510,1510,229.4109344482422,-0.010770568624138832
3697062.886,634013645,222.98,103147616,0.04323514550924301,-0.16356481611728668,1510,1510,229.3444366455078,-0.010858546942472458
3697162.886,634013645,222.98,103147616,0.03943923860788345,-0.16289068758487701,1510,1510,229.28549194335938,-0.011163981631398201
3697262.886,634013644,222.98,103147615,0.02765173278748989,-0.16650134325027466,1510,1510,229.232666015625,-0.01105131022632122
3697362.886,634013644,222.98,103147615,0.024118518456816673,-0.16282489895820618,1510,1510,229.17330932617188,-0.01084868423640728
3697462.886,634013644,222.98,103147614,0.019824698567390442,-0.15144774317741394,1510,1510,229.14483642578125,-0.0107331033796072
3697562.886,634013644,222.98,103147614,0.022382820025086403,-0.15777342021465302,1510,1510,229.1060333251953,-0.010730809532105923
3697662.886,634013643,222.98,103147612,0.031496208161115646,-0.15652403235435486,1510,1510,229.05491638183594,-0.0109307412058115
3697762.886,634013643,222.98,103147612,0.04335743933916092,-0.15703359246253967,1510,1510,228.99771118164062,-0.011836138553917408
3697862.886,634013644,223.01,103147610,0.047870054841041565,-0.16676586866378784,1510,1510,228.9321746826172,-0.01174776442348957
3697962.886,634013644,223.01,103147610,0.04315410554409027,-0.16800375282764435,1510,1510,228.87939453125,-0.01205956656485796
3698062.886,634013643,223.01,103147609,0.03617456927895546,-0.16261757910251617,1510,1510,228.81356811523438,-0.011636272072792053
3698162.886,634013643,223.01,103147609,0.02798164263367653,-0.16214673221111298,1510,1510,228.7262420654297,-0.010860277339816093
3698262.886,634013642,222.98,103147608,0.020609691739082336,-0.15946222841739655,1510,1510,228.6605224609375,-0.010473380796611309
3698362.886,634013642,222.98,103147608,0.018720190972089767,-0.15356400609016418,1510,1510,228.61456298828125,-0.010472583584487438
3698462.886,634013641,222.97,103147607,0.026632588356733322,-0.1559419333934784,1510,1510,228.5493621826172,-0.01095722895115614
3698562.886,634013641,222.97,103147607,0.04588098078966141,-0.15074919164180756,1510,1510,228.48631286621094,-0.01187133975327015
3698662.886,634013641,222.98,103147605,0.046698812395334244,-0.15676800906658173,1510,1510,228.41957092285156,-0.01243816502392292
3698762.886,634013641,222.98,103147605,0.041158199310302734,-0.161326602101326,1510,1510,228.3753204345703,-0.012163260951638222
3698862.886,634013641,222.99,103147604,0.03886029124259949,-0.16374295949935913,1510,1510,228.30886840820312,-0.01177998073399067
3698962.886,634013641,222.99,103147604,0.02556944265961647,-0.16812877357006073,1510,1510,228.2451629638672,-0.011336228810250759
3699062.886,634013640,222.99,103147602,0.014565316028892994,-0.16354194283485413,1510,1510,228.17532348632812,-0.011179662309587002
3699162.886,634013640,222.99,103147602,0.017170500010252,-0.16586802899837494,1510,1510,228.1179656982422,-0.011388526298105717
3699262.886,634013639,222.97,103147601,0.022854719310998917,-0.16456612944602966,1510,1510,228.05874633789062,-0.01194092072546482
3699362.886,634013639,222.97,103147601,0.03272761404514313,-0.15528085827827454,1510,1510,227.96278381347656,-0.012393650598824024
3699462.886,634013639,222.97,103147599,0.0437886007130146,-0.15227481722831726,1510,1510,227.8812255859375,-0.012838045135140419
3699562.886,634013639,222.97,103147599,0.04224001243710518,-0.15434794127941132,1510,1510,227.80587768554688,-0.012008421123027802
3699662.886,634013637,222.96,103147598,0.039094019681215286,-0.15958426892757416,1510,1510,227.71389770507812,-0.011627597734332085
3699762.886,634013637,222.96,103147598,0.03612850606441498,-0.16872552037239075,1510,1510,227.65850830078125,-0.01166867557913065
3699862.886,634013637,222.96,103147597,0.026874106377363205,-0.16526955366134644,1510,1510,227.6161346435547,-0.011514331214129925
3699962.886,634013637,222.96,103147597,0.023292794823646545,-0.16277261078357697,1510,1510,227.5498046875,-0.011804773472249508
3700062.886,634013636,222.96,103147595,0.02709098905324936,-0.1637684851884842,1510,1510,227.4783935546875,-0.012207668274641037
3700162.886,634013636,222.96,103147595,0.03159269690513611,-0.1568955034017563,1510,1510,227.39987182617188,-0.012396703474223614
3700262.886,634013635,222.95,103147594,0.035718806087970734,-0.1525394767522812,1510,1510,227.35174560546875,-0.012851963751018047
3700362.886,634013635,222.95,103147594,0.03822273761034012,-0.15444639325141907,1510,1510,227.28639221191406,-0.01292504370212555
3700462.886,634013634,222.94,103147592,0.032964181154966354,-0.15539416670799255,1510,1510,227.21495056152344,-0.012881395407021046
3700562.886,634013634,222.94,103147592,0.032070599496364594,-0.16544987261295319,1510,1510,227.1522979736328,-0.012567028403282166
3700662.886,634013633,222.92,103147591,0.027269456535577774,-0.17089806497097015,1510,1510,227.09176635742188,-0.0119261983782053
3700762.886,634013633,222.92,103147591,0.02598964422941208,-0.17338258028030396,1510,1510,227.03460693359375,-0.011749882251024246
3700862.886,634013632,222.92,103147589,0.030355464667081833,-0.16888204216957092,1510,1510,226.9983367919922,-0.01215700339525938
3700962.886,634013632,222.92,103147589,0.034223008900880814,-0.16525380313396454,1510,1510,226.95355224609375,-0.012728014960885048
3701062.886,634013631,222.91,103147587,0.03036053478717804,-0.15311230719089508,1510,1510,226.89234924316406,-0.012745756655931473
3701162.886,634013631,222.91,103147587,0.030806753784418106,-0.15251240134239197,1510,1510,226.8109588623047,-0.012994707562029362
3701262.886,634013630,222.91,103147585,0.03192674741148949,-0.15570397675037384,1510,1510,226.74664306640625,-0.012438459321856499
3701362.886,634013630,222.91,103147585,0.03997363522648811,-0.15406343340873718,1510,1510,226.70303344726562,-0.012297074310481548
3701462.886,634013629,222.91,103147584,0.03780997544527054,-0.16193026304244995,1510,1510,226.65159606933594,-0.01223840843886137
3701562.886,634013629,222.91,103147584,0.03783031925559044,-0.17478662729263306,1510,1510,226.59335327148438,-0.012640640139579773
3701662.886,634013629,222.88,103147582,0.0298929363489151,-0.17074128985404968,1510,1510,226.54788208007812,-0.012896917760372162
3701762.886,634013629,222.88,103147582,0.01947963237762451,-0.16901296377182007,1510,1510,226.48211669921875,-0.013246435672044754
3701862.886,634013628,222.88,103147580,0.019138045608997345,-0.16078972816467285,1510,1510,226.42649841308594,-0.013560622930526733
3701962.886,634013628,222.88,103147580,0.01719612628221512,-0.15824653208255768,1510,1510,226.3667755126953,-0.013058630749583244
3702062.886,634013627,222.87,103147578,0.02694857120513916,-0.15557819604873657,1510,1510,226.29576110839844,-0.01261077169328928
3702162.886,634013627,222.87,103147578,0.041539695113897324,-0.1569715291261673,1510,1510,226.24610900878906,-0.012060691602528095
3702262.886,634013626,222.85,103147576,0.048221006989479065,-0.1588430404663086,1510,1510,226.19212341308594,-0.012239970266819
3702362.886,634013626,222.85,103147576,0.046923957765102386,-0.16091927886009216,1510,1510,226.12820434570312,-0.012981663458049297
3702462.886,634013625,222.85,103147575,0.029132090508937836,-0.1695224940776825,1510,1510,226.0573272705078,-0.013633517548441887
3702562.886,634013625,222.85,103147575,0.017234545201063156,-0.16487807035446167,1510,1510,225.98492431640625,-0.013877518475055695
3702662.886,634013624,222.84,103147572,0.012164000421762466,-0.1568416953086853,1510,1510,225.9149932861328,-0.013852957636117935
3702762.886,634013624,222.84,103147572,0.019054090604186058,-0.1554613709449768,1510,1510,225.84291076660156,-0.013017413206398487
3702862.886,634013624,222.82,103147570,0.04059390351176262,-0.15758761763572693,1510,1510,225.76954650878906,-0.01318431831896305
3702962.886,634013624,222.82,103147570,0.046256646513938904,-0.1586962342262268,1510,1510,225.71240234375,-0.013138876296579838
3703062.886,634013623,222.81,103147569,0.05051518231630325,-0.16260145604610443,1510,1510,225.63629150390625,-0.012924888171255589
3703162.886,634013623,222.81,103147569,0.03805309906601906,-0.1710803210735321,1510,1510,225.55609130859375,-0.013343888334929943
3703262.886,634013622,222.79,103147567,0.030268708243966103,-0.16669535636901855,1510,1510,225.50128173828125,-0.01309109665453434
3703362.886,634013622,222.79,103147567,0.027917833998799324,-0.15724770724773407,1510,1510,225.44989013671875,-0.013295499607920647
3703462.886,634013620,222.79,103147565,0.018031982704997063,-0.1479913294315338,1510,1510,225.3665008544922,-0.013587485998868942
3703562.886,634013620,222.79,103147565,0.022232452407479286,-0.15171855688095093,1510,1510,225.29933166503906,-0.013768154196441174
3703662.886,634013620,222.78,103147563,0.03168546035885811,-0.15086643397808075,1510,1510,225.24020385742188,-0.0134354243054986
3703762.886,634013620,222.78,103147563,0.04584420099854469,-0.16130514442920685,1510,1510,225.16506958007812,-0.013676824048161507
3703862.886,634013619,222.77,103147562,0.05371399223804474,-0.17417719960212708,1510,1510,225.0812225341797,-0.013750466518104076
3703962.886,634013619,222.77,103147562,0.03882285952568054,-0.17834773659706116,1510,1510,224.99722290039062,-0.013578701764345169
3704062.886,634013618,222.76,103147559,0.023857921361923218,-0.17174482345581055,1510,1510,224.91781616210938,-0.013816550374031067
3704162.886,634013618,222.76,103147559,0.019726969301700592,-0.16459745168685913,1510,1510,224.84092712402344,-0.013785755261778831
3704262.886,634013617,222.76,103147558,0.021324092522263527,-0.1521642655134201,1510,1510,224.757568359375,-0.013824790716171265
3704362.886,634013617,222.76,103147558,0.02619684673845768,-0.14969512820243835,1510,1510,224.68475341796875,-0.01395118236541748
3704462.886,634013616,222.74,103147556,0.03738320618867874,-0.15014879405498505,1510,1510,224.61935424804688,-0.014384819194674492
3704562.886,634013616,222.74,103147556,0.041363924741744995,-0.15972831845283508,1510,1510,224.5465545654297,-0.01449707429856062
3704662.886,634013616,222.73,103147555,0.04061106964945793,-0.16840779781341553,1510,1510,224.46939086914062,-0.01432686299085617
3704762.886,634013616,222.73,103147555,0.03965265303850174,-0.1711685210466385,1510,1510,224.3718719482422,-0.014321358874440193
3704862.886,634013615,222.72,103147554,0.033135559409856796,-0.175694540143013,1510,1510,224.29164123535156,-0.013933766633272171
3704962.886,634013615,222.72,103147554,0.019991232082247734,-0.17076590657234192,1510,1510,224.22006225585938,-0.013799117878079414
3705062.886,634013615,222.72,103147552,0.016791779547929764,-0.16002652049064636,1510,1510,224.13255310058594,-0.014085819944739342
3705162.886,634013615,222.72,103147552,0.025512875989079475,-0.15679976344108582,1510,1510,224.02642822265625,-0.014033161103725433
3705262.886,634013614,222.72,103147552,0.03133948892354965,-0.15180139243602753,1510,1510,223.91751098632812,-0.014971019700169563
3705362.886,634013614,222.72,103147552,0.041033245623111725,-0.15926244854927063,1510,1510,223.81663513183594,-0.015319899655878544
3705462.886,634013612,222.69,103147551,0.04205882176756859,-0.16023938357830048,1510,1510,223.7292022705078,-0.015308218076825142
3705562.886,634013612,222.69,103147551,0.040004003793001175,-0.16840237379074097,1510,1510,223.64108276367188,-0.01477778423577547
3705662.886,634013610,222.65,103147549,0.02324606105685234,-0.16620095074176788,1510,1510,223.5515899658203,-0.014243521727621555
3705762.886,634013610,222.65,103147549,0.023097509518265724,-0.17447398602962494,1510,1510,223.48377990722656,-0.014039179310202599
3705862.886,634013608,222.62,103147549,0.01888216659426689,-0.16244208812713623,1510,1510,223.4176483154297,-0.014098692685365677
3705962.886,634013608,222.62,103147549,0.02174033410847187,-0.16373959183692932,1510,1510,223.34010314941406,-0.014637508429586887
3706062.886,634013607,222.61,103147548,0.03311251476407051,-0.1583288162946701,1510,1510,223.270751953125,-0.015242787078022957
3706162.886,634013607,222.61,103147548,0.041719138622283936,-0.14671577513217926,1510,1510,223.1963653564453,-0.01566631905734539
3706262.886,634013607,222.62,103147546,0.045018747448921204,-0.15362143516540527,1510,1510,223.0934600830078,-0.015753334388136864
3706362.886,634013607,222.62,103147546,0.041304923593997955,-0.1596895307302475,1510,1510,222.9957733154297,-0.01512356847524643
3706462.886,634013606,222.61,103147544,0.03499038890004158,-0.17086733877658844,1510,1510,222.89794921875,-0.014313360676169395
3706562.886,634013606,222.61,103147544,0.02369578182697296,-0.16910403966903687,1510,1510,222.8052978515625,-0.01437169499695301
3706662.886,634013606,222.61,103147544,0.027425218373537064,-0.1677739918231964,1510,1510,222.72109985351562,-0.014661893248558044
3706762.886,634013606,222.61,103147544,0.023874439299106598,-0.17114631831645966,1510,1510,222.64686584472656,-0.015641748905181885
3706862.886,634013605,222.61,103147542,0.02643163874745369,-0.14910945296287537,1510,1510,222.58351135253906,-0.01606263965368271
3706962.886,634013605,222.61,103147542,0.033368028700351715,-0.15232577919960022,1510,1510,222.498779296875,-0.015975086018443108
3707062.886,634013604,222.6,103147540,0.03891625255346298,-0.15106703341007233,1510,1510,222.4084014892578,-0.015080433338880539
3707162.886,634013604,222.6,103147540,0.037072133272886276,-0.1554529219865799,1510,1510,222.32240295410156,-0.01473243162035942
3707262.886,634013604,222.6,103147539,0.04010753706097603,-0.16022637486457825,1510,1510,222.22341918945312,-0.014679414220154285
3707362.886,634013604,222.6,103147539,0.02625616267323494,-0.16727285087108612,1510,1510,222.1174774169922,-0.015132232569158077
3707462.886,634013603,222.59,103147537,0.025233307853341103,-0.16362321376800537,1510,1510,222.03988647460938,-0.01556398905813694
3707562.886,634013603,222.59,103147537,0.02091066911816597,-0.16589954495429993,1510,1510,221.9705047607422,-0.015919435769319534
3707662.886,634013602,222.59,103147536,0.022209249436855316,-0.1604483425617218,1510,1510,221.88685607910156,-0.016336169093847275
3707762.886,634013602,222.59,103147536,0.03447742015123367,-0.16396531462669373,1510,1510,221.8205108642578,-0.015890013426542282
3707862.886,634013602,222.59,103147535,0.03741978853940964,-0.15720686316490173,1510,1510,221.75743103027344,-0.015461975708603859
3707962.886,634013602,222.59,103147535,0.03657478094100952,-0.156280979514122,1510,1510,221.68679809570312,-0.015480414032936096
3708062.886,634013601,222.59,103147534,0.03749556466937065,-0.15581713616847992,1510,1510,221.62171936035156,-0.015875808894634247
3708162.886,634013601,222.59,103147534,0.03137073665857315,-0.15554973483085632,1510,1510,221.5631561279297,-0.016049304977059364
3708262.886,634013600,222.58,103147532,0.026548460125923157,-0.1635952591896057,1510,1510,221.48793029785156,-0.01622815616428852
3708362.886,634013600,222.58,103147532,0.028671205043792725,-0.1609865128993988,1510,1510,221.38458251953125,-0.016346000134944916
3708462.886,634013600,222.58,103147531,0.029320336878299713,-0.16894036531448364,1504,1500,221.2808380126953,-0.016376690939068794
3708562.886,634013600,222.58,103147531,0.028202682733535767,-0.1622932404279709,1504,1500,221.1890869140625,-0.01608690619468689
3708662.886,634013599,222.58,103147530,0.03188781440258026,-0.156039297580719,1496,1487,221.1153106689453,-0.01574176549911499
3708762.886,634013599,222.58,103147530,0.029578763991594315,-0.15491199493408203,1496,1487,221.022705078125,-0.015894828364253044
3708862.886,634013598,222.58,103147529,0.019393933936953545,-0.16452765464782715,1496,1487,220.91114807128906,-0.016656309366226196
3708962.886,634013598,222.58,103147529,0.014255971647799015,-0.1577962189912796,1499,1493,220.80252075195312,-0.018187157809734344
3709062.886,634013598,222.59,103147528,0.01663460023701191,-0.16305159032344818,1502,1496,220.69168090820312,-0.01877906545996666
3709162.886,634013598,222.59,103147528,0.014958001673221588,-0.1643126904964447,1503,1498,220.5767364501953,-0.01930827647447586
3709262.886,634013599,222.6,103147526,0.02631010301411152,-0.16598667204380035,1505,1502,220.4660186767578,-0.019717594608664513
3709362.886,634013599,222.6,103147526,0.03086521103978157,-0.16818365454673767,1505,1502,220.36622619628906,-0.02030199207365513
3709462.886,634013599,222.61,103147525,0.04562940075993538,-0.1628294587135315,1482,1464,220.25146484375,-0.02000800147652626
3709562.886,634013599,222.61,103147525,0.03698579967021942,-0.16520845890045166,1467,1441,220.13526916503906,-0.019999714568257332
3709662.886,634013598,222.61,103147523,0.03608683869242668,-0.16450135409832,1461,1431,219.9604034423828,-0.022935329005122185
3709762.886,634013598,222.61,103147523,-0.043978072702884674,-0.21260787546634674,1455,1422,219.68942260742188,-0.036554016172885895
3709862.886,634013598,222.6,103147521,-0.02981695346534252,-0.2204965054988861,1454,1420,219.2965087890625,-0.05262681469321251
3709962.886,634013598,222.6,103147521,-0.17544807493686676,-0.20646019279956818,1454,1420,218.7803955078125,-0.07365360856056213
3710062.886,634013598,222.61,103147521,-0.12496547400951385,-0.2592204809188843,1437,1394,218.1258087158203,-0.09878683090209961
3710162.886,634013598,222.61,103147521,-0.12789683043956757,-0.20329654216766357,1385,1310,217.3166046142578,-0.12276023626327515
3710262.886,634013598,222.6,103147521,0.12419770658016205,-0.320080041885376,1385,1310,216.14950561523438,-0.15776416659355164
3710362.886,634013598,222.6,103147521,0.5091121196746826,-0.47026070952415466,1312,1193,214.30520629882812,-0.2425326406955719
3710462.886,634013596,222.59,103147521,0.44046860933303833,-0.48120737075805664,1311,1191,211.75689697265625,-0.38079825043678284
3710562.886,634013596,222.59,103147521,0.5113599300384521,-0.5384852290153503,1310,1190,208.65737915039062,-0.5055840015411377
3710662.886,634013593,222.59,103147522,0.3529474139213562,-0.5365483164787292,1310,1190,205.12908935546875,-0.5988727807998657
3710762.886,634013593,222.59,103147522,0.43847936391830444,-0.47927191853523254,1310,1190,201.1614532470703,-0.6726217269897461
3710862.886,634013589,222.58,103147523,0.3031088709831238,-0.35101625323295593,1310,1190,196.8844757080078,-0.7394379377365112
3710962.886,634013589,222.58,103147523,0.20517845451831818,-0.38453853130340576,1310,1190,192.3348388671875,-0.7981010675430298
3711062.886,634013584,222.58,103147526,0.051181528717279434,-0.38886016607284546,1310,1190,187.63119506835938,-0.8399401903152466
3711162.886,634013584,222.58,103147526,0.01766168884932995,-0.3524886667728424,1308,1186,182.82394409179688,-0.8605170249938965
3711262.886,634013580,222.59,103147529,-0.009360440075397491,-0.4353893995285034,1303,1179,177.9384307861328,-0.87081378698349
3711362.886,634013580,222.59,103147529,0.02344018593430519,-0.572979748249054,1303,1179,172.86724853515625,-0.8867925405502319
3711462.886,634013575,222.61,103147535,0.005357642658054829,-0.5846625566482544,1303,1179,167.75181579589844,-0.9106693267822266
3711562.886,634013575,222.61,103147535,-0.15259918570518494,-0.5211364030838013,1303,1179,162.65231323242188,-0.925675094127655
3711662.886,634013572,222.6,103147541,-0.15241362154483795,-0.5256115794181824,1303,1179,157.62738037109375,-0.9179818630218506
3711762.886,634013572,222.6,103147541,-0.13613933324813843,-0.47309064865112305,1303,1179,152.6930694580078,-0.8972309231758118
3711862.886,634013569,222.6,103147550,-0.08070753514766693,-0.49118906259536743,1303,1179,147.82403564453125,-0.8827356696128845
3711962.886,634013569,222.6,103147550,0.28299710154533386,-0.4410833418369293,1303,1179,142.94964599609375,-0.8742775321006775
3712062.886,634013567,222.58,103147557,0.07519807666540146,-0.3294575810432434,1303,1179,138.10336303710938,-0.8574399948120117
3712162.886,634013567,222.58,103147557,-0.15074220299720764,-0.3244205117225647,1303,1179,133.3186798095703,-0.8567719459533691
3712262.886,634013566,222.57,103147564,-0.27856719493865967,-0.5757548809051514,1303,1179,128.67298889160156,-0.8336942195892334
3712362.886,634013566,222.57,103147564,-0.343621164560318,-0.4866350293159485,1303,1179,124.10540771484375,-0.8091307282447815
3712462.886,634013566,222.59,103147572,-0.20821638405323029,-0.5505837202072144,1303,1179,119.4384765625,-0.7996358275413513
3712562.886,634013566,222.59,103147572,-0.2574057877063751,-0.7071402072906494,1303,1179,114.71068572998047,-0.804797351360321
3712662.886,634013566,222.58,103147579,-0.01665475405752659,-0.5539728403091431,1303,1179,109.88616180419922,-0.821471095085144
3712762.886,634013566,222.58,103147579,-0.18140429258346558,-0.3813827931880951,1303,1179,105.05064392089844,-0.8307107090950012
3712862.886,634013567,222.58,103147587,-0.05935446545481682,-0.4925675392150879,1303,1179,100.23405456542969,-0.8261989951133728
3712962.886,634013567,222.58,103147587,-0.1050369068980217,-0.4162704646587372,1303,1179,95.4285659790039,-0.8227578997612
3713062.886,634013568,222.58,103147593,-0.18049278855323792,-0.3820185363292694,1303,1179,90.65923309326172,-0.8173580169677734
3713162.886,634013568,222.58,103147593,-0.11976058781147003,-0.42898547649383545,1303,1179,86.02471160888672,-0.7950791716575623
3713262.886,634013569,222.58,103147598,0.37842079997062683,-0.3313889503479004,1303,1179,81.5924072265625,-0.7735276818275452
3713362.886,634013569,222.58,103147598,0.07760584354400635,-0.5336775779724121,1303,1179,77.14222717285156,-0.7389450669288635
3713462.886,634013571,222.56,103147604,0.31628432869911194,-0.5955274105072021,1303,1179,72.7139663696289,-0.752007007598877
3713562.886,634013571,222.56,103147604,0.1819232702255249,-0.597923994064331,1303,1179,68.41674041748047,-0.7340306043624878
3713662.886,634013575,222.55,103147611,0.04717525094747543,-0.621772289276123,1303,1179,63.88447570800781,-0.7242311239242554
3713762.886,634013575,222.55,103147611,-0.005044957157224417,-0.5375602841377258,1303,1179,59.27170181274414,-0.7561839818954468
3713862.886,634013579,222.55,103147616,-0.25882571935653687,-0.5632184147834778,1303,1179,54.67549133300781,-0.7721752524375916
3713962.886,634013579,222.55,103147616,-0.17778366804122925,-0.536001443862915,1303,1179,50.04529571533203,-0.7715575695037842
3714062.886,634013583,222.55,103147620,-0.30642569065093994,-0.47947293519973755,1303,1179,45.33298873901367,-0.7824427485466003
3714162.886,634013583,222.55,103147620,-0.11774372309446335,-0.5438882112503052,1303,1179,40.648773193359375,-0.7907509207725525
3714262.886,634013588,222.56,103147621,-0.21239249408245087,-0.5497950911521912,1303,1179,35.991981506347656,-0.7825848460197449
3714362.886,634013588,222.56,103147621,-0.09587973356246948,-0.512694776058197,1303,1179,31.419445037841797,-0.7657182216644287
3714462.886,634013592,222.57,103147621,-0.03414240479469299,-0.5602155923843384,1303,1179,26.803590774536133,-0.7638599872589111
3714562.886,634013592,222.57,103147621,-0.10311080515384674,-0.5523018836975098,1303,1179,22.182096481323242,-0.7684618234634399
3714662.886,634013596,222.57,103147620,-0.07434111833572388,-0.436635822057724,1303,1179,17.56962013244629,-0.771461009979248
3714762.886,634013596,222.57,103147620,-0.20804385840892792,-0.38627102971076965,1303,1179,12.938460350036621,-0.7701436281204224
3714862.886,634013600,222.56,103147617,-0.12691470980644226,-0.5010815858840942,1303,1179,8.412347793579102,-0.7666771411895752
3714962.886,634013600,222.56,103147617,-0.23921363055706024,-0.5088804960250854,1303,1179,3.897322416305542,-0.7587564587593079
3715062.886,634013604,222.56,103147614,-0.05258847028017044,-0.6188875436782837,1303,1179,359.3675537109375,-0.7599100470542908
3715162.886,634013604,222.56,103147614,-0.19628427922725677,-0.5944907069206238,1303,1179,354.8783264160156,-0.7630270719528198
3715262.886,634013607,222.56,103147608,-0.17106369137763977,-0.4892438054084778,1303,1179,350.394775390625,-0.7590776681900024
3715362.886,634013607,222.56,103147608,-0.1920454502105713,-0.4603700041770935,1303,1179,345.9447326660156,-0.7535905838012695
3715462.886,634013610,222.53,103147600,-0.11165648698806763,-0.4276807904243469,1303,1179,341.5799560546875,-0.7397842407226562
3715562.886,634013610,222.53,103147600,-0.08284877985715866,-0.44476670026779175,1303,1179,337.18377685546875,-0.7364380359649658
3715662.886,634013613,222.51,103147591,-0.20095182955265045,-0.48051580786705017,1303,1179,332.7698669433594,-0.743565559387207
3715762.886,634013613,222.51,103147591,-0.1074843555688858,-0.4949895143508911,1303,1179,328.3301086425781,-0.7512289881706238
3715862.886,634013614,222.52,103147584,-0.13548123836517334,-0.48078060150146484,1303,1179,323.86248779296875,-0.763870120048523
3715962.886,634013614,222.52,103147584,-0.004002269357442856,-0.4980332851409912,1303,1179,319.47528076171875,-0.7622159719467163
3716062.886,634013616,222.53,103147575,0.2009318470954895,-0.4332364797592163,1303,1179,315.3283386230469,-0.7352951765060425
3716162.886,634013616,222.53,103147575,0.2256070077419281,-0.48514169454574585,1303,1179,311.24237060546875,-0.7109994888305664
3716262.886,634013617,222.52,103147565,0.1617729812860489,-0.5246163010597229,1303,1179,307.2348327636719,-0.7023945450782776
3716362.886,634013617,222.52,103147565,0.19597399234771729,-0.4005870819091797,1303,1179,303.2904357910156,-0.6900294423103333
3716462.886,634013617,222.51,103147553,0.18069247901439667,-0.44710347056388855,1348,1250,299.3309631347656,-0.6782640218734741
3716562.886,634013617,222.51,103147553,0.11370181292295456,-0.6411750316619873,1510,1510,295.4111633300781,-0.6805604696273804
3716662.886,634013618,222.51,103147540,-0.3602384328842163,-0.1851382553577423,1510,1510,292.1013488769531,-0.6654847860336304
3716762.886,634013618,222.51,103147540,-0.394029825925827,-0.09349179267883301,1510,1510,289.47125244140625,-0.5319641828536987
3716862.886,634013618,222.49,103147532,-0.2543758153915405,-0.2538011074066162,1510,1510,287.2232360839844,-0.42764943838119507
3716962.886,634013618,222.49,103147532,-0.194905623793602,0.016413597390055656,1510,1510,285.2596740722656,-0.36810195446014404
3717062.886,634013618,222.49,103147524,-0.20178954303264618,0.034147508442401886,1510,1510,283.56756591796875,-0.3200618624687195
3717162.886,634013618,222.49,103147524,-0.20271655917167664,-0.16409307718276978,1510,1510,282.1790771484375,-0.26966822147369385
3717262.886,634013618,222.47,103147517,-0.1683863401412964,-0.15786996483802795,1510,1510,281.0148620605469,-0.22379478812217712
3717362.886,634013618,222.47,103147517,-0.10016226768493652,-0.1307247430086136,1510,1510,280.06365966796875,-0.18446271121501923
3717462.886,634013618,222.46,103147511,-0.1480405032634735,-0.2839924693107605,1510,1510,279.3258361816406,-0.14695170521736145
3717562.886,634013618,222.46,103147511,-0.008937389589846134,-0.2325618416070938,1510,1510,278.69439697265625,-0.11466304957866669
3717662.886,634013618,222.46,103147505,0.03264594078063965,-0.16033826768398285,1510,1510,278.0212707519531,-0.10678880661725998
3717762.886,634013618,222.46,103147505,-0.017775945365428925,-0.16271226108074188,1510,1510,277.404052734375,-0.11025343090295792
3717862.886,634013618,222.45,103147499,-0.09047962725162506,-0.08864740282297134,1510,1510,276.9327392578125,-0.09619255363941193
3717962.886,634013618,222.45,103147499,-0.027938663959503174,-0.09293863922357559,1510,1510,276.6012268066406,-0.06868556886911392
3718062.886,634013618,222.44,103147496,-0.017537064850330353,-0.16103176772594452,1510,1510,276.3262634277344,-0.04670089855790138
3718162.886,634013618,222.44,103147496,0.045371104031801224,-0.22465205192565918,1510,1510,276.037353515625,-0.04095946624875069
3718262.886,634013618,222.44,103147490,0.018636055290699005,-0.18228480219841003,1510,1510,275.73736572265625,-0.04492402821779251
3718362.886,634013618,222.44,103147490,-0.00970231182873249,-0.2102835327386856,1510,1510,275.45758056640625,-0.04623456299304962
3718462.886,634013618,222.42,103147485,-0.040664300322532654,-0.16037650406360626,1510,1510,275.24078369140625,-0.04081769287586212
3718562.886,634013618,222.42,103147485,-0.010491869412362576,-0.12725406885147095,1510,1510,275.1003112792969,-0.029586728662252426
3718662.886,634013618,222.42,103147481,-0.014256054535508156,-0.15645985305309296,1510,1510,274.9864196777344,-0.017749231308698654
3718762.886,634013618,222.42,103147481,0.025792494416236877,-0.1501537561416626,1510,1510,274.9054870605469,-0.009975023567676544
3718862.886,634013618,222.43,103147477,0.04434377700090408,-0.17736215889453888,1510,1510,274.8342590332031,-0.008192871697247028
3718962.886,634013618,222.43,103147477,0.05590152367949486,-0.19099891185760498,1510,1510,274.73980712890625,-0.009348731487989426
3719062.886,634013618,222.41,103147472,0.030344661325216293,-0.18372060358524323,1510,1510,274.6452941894531,-0.011218392290174961
3719162.886,634013618,222.41,103147472,0.00954089593142271,-0.13849368691444397,1510,1510,274.59625244140625,-0.009095530025660992
3719262.886,634013618,222.39,103147467,-0.00839969888329506,-0.1321498602628708,1510,1510,274.57806396484375,-0.0031916936859488487
3719362.886,634013618,222.39,103147467,0.0029242762830108404,-0.14717839658260345,1510,1510,274.5611267089844,0.0020795795135200024
3719462.886,634013619,222.39,103147464,0.02818823605775833,-0.17366449534893036,1510,1510,274.53448486328125,0.0020737480372190475
3719562.886,634013619,222.39,103147464,0.028768686577677727,-0.21584075689315796,1510,1510,274.49176025390625,-0.0028341622091829777
3719662.886,634013619,222.37,103147459,0.024076350033283234,-0.17145806550979614,1510,1510,274.4547424316406,-0.006772761233150959
3719762.886,634013619,222.37,103147459,0.02244146354496479,-0.1479131579399109,1510,1510,274.4418029785156,-0.004066305700689554
3719862.886,634013619,222.37,103147455,0.029097726568579674,-0.13587385416030884,1510,1510,274.44512939453125,0.0016078311018645763
3719962.886,634013619,222.37,103147455,0.027071775868535042,-0.15190792083740234,1510,1510,274.45361328125,0.0058541372418403625
3720062.886,634013619,222.36,103147452,0.031350791454315186,-0.16594888269901276,1510,1510,274.46392822265625,0.006860785651952028
3720162.886,634013619,222.36,103147452,0.0274832621216774,-0.17325250804424286,1510,1510,274.47125244140625,0.006594166625291109
3720262.886,634013620,222.35,103147448,0.030229682102799416,-0.17283453047275543,1510,1510,274.475830078125,0.005115022882819176
3720362.886,634013620,222.35,103147448,0.025285925716161728,-0.1569937765598297,1510,1510,274.47027587890625,0.004101898986846209
3720462.886,634013620,222.35,103147444,0.010392986238002777,-0.17046941816806793,1510,1510,274.47088623046875,0.004877152852714062
3720562.886,634013620,222.35,103147444,0.009677788242697716,-0.16597722470760345,1510,1510,274.5135803222656,0.007608550600707531
3720662.886,634013620,222.33,103147440,0.008567528799176216,-0.1537100374698639,1510,1510,274.5707702636719,0.012575631961226463
3720762.886,634013620,222.33,103147440,0.0287250354886055,-0.13796710968017578,1510,1510,274.6312255859375,0.016480939462780952
3720862.886,634013621,222.32,103147436,0.053965792059898376,-0.14848577976226807,1510,1510,274.6639099121094,0.01588561199605465
3720962.886,634013621,222.32,103147436,0.05298957973718643,-0.1772240549325943,1510,1510,274.6773986816406,0.01055164448916912
3721062.886,634013622,222.31,103147431,0.019944915547966957,-0.18403002619743347,1510,1510,274.7007751464844,0.006765436381101608
3721162.886,634013622,222.31,103147431,0.004827854223549366,-0.16976137459278107,1510,1510,274.7731628417969,0.010281899943947792
3721262.886,634013622,222.31,103147428,0.014240396209061146,-0.13995014131069183,1510,1510,274.87872314453125,0.017251238226890564
3721362.886,634013622,222.31,103147428,0.030928833410143852,-0.15377265214920044,1510,1510,274.9911193847656,0.021629448980093002
3721462.886,634013623,222.29,103147423,0.03192249685525894,-0.16325417160987854,1510,1510,275.076416015625,0.020421652123332024
3721562.886,634013623,222.29,103147423,0.025247924029827118,-0.17528706789016724,1510,1510,275.1396179199219,0.01669876091182232
3721662.886,634013623,222.27,103147419,0.0302645955234766,-0.16966131329536438,1510,1510,275.2064208984375,0.013998731039464474
3721762.886,634013623,222.27,103147419,0.03468988835811615,-0.14715373516082764,1510,1510,275.2977294921875,0.013470196165144444
3721862.886,634013624,222.26,103147416,0.039522770792245865,-0.1506858766078949,1510,1510,275.40045166015625,0.01587209850549698
3721962.886,634013624,222.26,103147416,0.032884132117033005,-0.15374496579170227,1510,1510,275.51123046875,0.019757810980081558
3722062.886,634013625,222.26,103147412,0.02550460584461689,-0.17368188500404358,1510,1510,275.62078857421875,0.02175385132431984
3722162.886,634013625,222.26,103147412,0.023403139784932137,-0.16757190227508545,1510,1510,275.70599365234375,0.02068900875747204
3722262.886,634013625,222.24,103147408,0.02715933322906494,-0.16086967289447784,1510,1510,275.770751953125,0.01729842647910118
3722362.886,634013625,222.24,103147408,0.02939198538661003,-0.15353336930274963,1510,1510,275.84832763671875,0.013334769755601883
3722462.886,634013625,222.24,103147404,0.026492800563573837,-0.16335631906986237,1510,1510,275.9060363769531,0.012093893252313137
3722562.886,634013625,222.24,103147404,0.028058834373950958,-0.16630171239376068,1510,1510,275.98260498046875,0.015375575050711632
3722662.886,634013626,222.22,103147401,0.02532166987657547,-0.1522517204284668,1510,1510,276.1099548339844,0.020225685089826584
3722762.886,634013626,222.22,103147401,0.03641548380255699,-0.16924232244491577,1510,1510,276.21490478515625,0.02170656993985176
3722862.886,634013627,222.21,103147397,0.03843145817518234,-0.1719169318675995,1510,1510,276.2942810058594,0.01886051893234253
3722962.886,634013627,222.21,103147397,0.03951254114508629,-0.16831566393375397,1510,1510,276.3668212890625,0.014775196090340614
3723062.886,634013627,222.2,103147393,0.03050113283097744,-0.1447359025478363,1510,1510,276.4302978515625,0.01339538674801588
3723162.886,634013627,222.2,103147393,0.017563126981258392,-0.1354939341545105,1510,1510,276.5052490234375,0.015589669346809387
3723262.886,634013628,222.19,103147390,0.017546050250530243,-0.16197897493839264,1510,1510,276.5912170410156,0.019204622134566307
3723362.886,634013628,222.19,103147390,0.015377501025795937,-0.18496713042259216,1510,1510,276.711181640625,0.020711639896035194
3723462.886,634013628,222.18,103147385,0.031318049877882004,-0.19107919931411743,1510,1510,276.8140869140625,0.0210604015737772
3723562.886,634013628,222.18,103147385,0.03926732763648033,-0.17265266180038452,1510,1510,276.91119384765625,0.018807049840688705
3723662.886,634013629,222.17,103147381,0.03990601375699043,-0.13375547528266907,1510,1510,277.0101013183594,0.016496457159519196
3723762.886,634013629,222.17,103147381,0.034858398139476776,-0.1282859444618225,1510,1510,277.1069641113281,0.016248811036348343
3723862.886,634013629,222.15,103147379,0.02647920697927475,-0.15098735690116882,1510,1510,277.2239074707031,0.018041661009192467
3723962.886,634013629,222.15,103147379,0.01857692003250122,-0.1780843734741211,1510,1510,277.3417053222656,0.02009574882686138
3724062.886,634013630,222.14,103147375,0.00914808176457882,-0.1846337616443634,1510,1510,277.4771423339844,0.02239980734884739
3724162.886,634013630,222.14,103147375,0.027198828756809235,-0.17211510241031647,1510,1510,277.60552978515625,0.023701276630163193
3724262.886,634013630,222.13,103147371,0.046388380229473114,-0.1522759199142456,1510,1510,277.6963806152344,0.02109118551015854
3724362.886,634013630,222.13,103147371,0.047637276351451874,-0.15401366353034973,1510,1510,277.757080078125,0.0160389244556427
3724462.886,634013631,222.13,103147367,0.029442381113767624,-0.14372557401657104,1510,1510,277.8215637207031,0.014442911371588707
3724562.886,634013631,222.13,103147367,0.01681910641491413,-0.1440432220697403,1510,1510,277.90313720703125,0.018633833155035973
3724662.886,634013632,222.12,103147364,0.01931561715900898,-0.15348491072654724,1510,1510,278.0291748046875,0.024255875498056412
3724762.886,634013632,222.12,103147364,0.030799977481365204,-0.19312921166419983,1510,1510,278.15142822265625,0.0250861756503582
3724862.886,634013632,222.12,103147360,0.04468530789017677,-0.1851605921983719,1510,1510,278.2277526855469,0.02062647044658661
3724962.886,634013632,222.12,103147360,0.04237912595272064,-0.16182741522789001,1510,1510,278.30572509765625,0.016070373356342316
3725062.886,634013633,222.11,103147356,0.028117556124925613,-0.13483808934688568,1510,1510,278.4013671875,0.01552668958902359
3725162.886,634013633,222.11,103147356,0.025683803483843803,-0.13052353262901306,1510,1510,278.4929504394531,0.01720389351248741
3725262.886,634013633,222.09,103147353,0.026416920125484467,-0.15579767525196075,1510,1510,278.5826416015625,0.019431496039032936
3725362.886,634013633,222.09,103147353,0.0204447153955698,-0.18258383870124817,1510,1510,278.6866149902344,0.020591717213392258
3725462.886,634013634,222.09,103147349,0.025676455348730087,-0.1883009821176529,1510,1510,278.7964782714844,0.02084309607744217
3725562.886,634013634,222.09,103147349,0.037005532532930374,-0.17583860456943512,1510,1510,278.89306640625,0.019392920657992363
3725662.886,634013634,222.08,103147344,0.044645026326179504,-0.14589768648147583,1510,1510,278.97802734375,0.015884684398770332
3725762.886,634013634,222.08,103147344,0.03240598738193512,-0.1363106667995453,1510,1510,279.03521728515625,0.013456975109875202
3725862.886,634013635,222.07,103147341,0.01668219268321991,-0.15535911917686462,1510,1510,279.1107482910156,0.013500136323273182
3725962.886,634013635,222.07,103147341,0.010555311106145382,-0.16084156930446625,1510,1510,279.2144775390625,0.016606518998742104
3726062.886,634013636,222.05,103147337,0.026156611740589142,-0.1689354032278061,1510,1510,279.3455505371094,0.02022414281964302
3726162.886,634013636,222.05,103147337,0.04859147220849991,-0.1780277043581009,1510,1510,279.4560241699219,0.020278772339224815
3726262.886,634013637,222.06,103147333,0.051581986248493195,-0.17989769577980042,1510,1510,279.5270690917969,0.01621537283062935
3726362.886,634013637,222.06,103147333,0.04015306010842323,-0.16837303340435028,1510,1510,279.57080078125,0.011598203331232071
3726462.886,634013637,222.04,103147330,0.024483077228069305,-0.14422087371349335,1510,1510,279.61376953125,0.011246807873249054
3726562.886,634013637,222.04,103147330,0.02530839666724205,-0.13564233481884003,1510,1510,279.68072509765625,0.013596300967037678
3726662.886,634013638,222.05,103147326,0.028547698631882668,-0.15512686967849731,1510,1510,279.77740478515625,0.016633644700050354
3726762.886,634013638,222.05,103147326,0.03665205091238022,-0.18057137727737427,1510,1510,279.8745422363281,0.018303949385881424
3726862.886,634013638,222.04,103147322,0.03737591207027435,-0.19165664911270142,1510,1510,279.955322265625,0.017111197113990784
3726962.886,634013638,222.04,103147322,0.02761293388903141,-0.1688985973596573,1510,1510,280.00872802734375,0.014815254136919975
3727062.886,634013638,222.04,103147319,0.03734275698661804,-0.15247279405593872,1510,1510,280.0627136230469,0.011273611336946487
3727162.886,634013638,222.04,103147319,0.0300295390188694,-0.1402791440486908,1510,1510,280.11907958984375,0.009266402572393417
3727262.886,634013639,222.04,103147316,0.02415917068719864,-0.1481190174818039,1510,1510,280.18548583984375,0.010621927678585052
3727362.886,634013639,222.04,103147316,0.03118888847529888,-0.15873704850673676,1510,1510,280.27130126953125,0.014922584407031536
3727462.886,634013639,222.02,103147311,0.028312979266047478,-0.17458686232566833,1510,1510,280.35906982421875,0.01800161972641945
3727562.886,634013639,222.02,103147311,0.040838100016117096,-0.1777726113796234,1510,1510,280.42327880859375,0.016602715477347374
3727662.886,634013640,222.04,103147309,0.04124649614095688,-0.17079393565654755,1510,1510,280.47552490234375,0.012424159795045853
3727762.886,634013640,222.04,103147309,0.03321859613060951,-0.1621059626340866,1510,1510,280.512939453125,0.008097723126411438
3727862.886,634013639,222.04,103147304,0.02399419993162155,-0.15217040479183197,1510,1510,280.5567932128906,0.007681901566684246
3727962.886,634013639,222.04,103147304,0.02480390854179859,-0.1520562618970871,1510,1510,280.61212158203125,0.011457907035946846
3728062.886,634013639,222.05,103147301,0.03916186839342117,-0.16253754496574402,1510,1510,280.65533447265625,0.015140468254685402
3728162.886,634013639,222.05,103147301,0.03791463375091553,-0.17071259021759033,1510,1510,280.69189453125,0.01540528703480959
3728262.886,634013639,222.05,103147297,0.037408020347356796,-0.17979726195335388,1510,1510,280.759765625,0.013262188993394375
3728362.886,634013639,222.05,103147297,0.033447571098804474,-0.17645493149757385,1510,1510,280.822509765625,0.010307179763913155
3728462.886,634013640,222.04,103147294,0.021587233990430832,-0.16105662286281586,1510,1510,280.8642578125,0.007472880184650421
3728562.886,634013640,222.04,103147294,0.031202241778373718,-0.14762112498283386,1510,1510,280.89312744140625,0.006756260059773922
3728662.886,634013640,222.04,103147290,0.026176564395427704,-0.15252459049224854,1510,1510,280.92523193359375,0.009240572340786457
3728762.886,634013640,222.04,103147290,0.031110187992453575,-0.16419489681720734,1510,1510,280.97308349609375,0.012981720268726349
3728862.886,634013640,222.05,103147286,0.02432289347052574,-0.174260213971138,1510,1510,281.0245361328125,0.014714568853378296
3728962.886,634013640,222.05,103147286,0.031730927526950836,-0.170547753572464,1510,1510,281.0423583984375,0.01234055869281292
3729062.886,634013639,222.07,103147282,0.02988235279917717,-0.17574399709701538,1510,1510,281.04595947265625,0.0068984730169177055
3729162.886,634013639,222.07,103147282,0.029693663120269775,-0.15650150179862976,1510,1510,281.07086181640625,0.0035321684554219246
3729262.886,634013639,222.08,103147278,0.026870638132095337,-0.14785471558570862,1510,1510,281.1221618652344,0.005264161620289087
3729362.886,634013639,222.08,103147278,0.029540330171585083,-0.15633946657180786,1510,1510,281.19873046875,0.010146992281079292
3729462.886,634013639,222.07,103147275,0.03829807788133621,-0.16312161087989807,1510,1510,281.2669677734375,0.013259580358862877
3729562.886,634013639,222.07,103147275,0.03367882966995239,-0.16705960035324097,1510,1510,281.30377197265625,0.011706947349011898
3729662.886,634013639,222.08,103147271,0.03479170799255371,-0.16842234134674072,1510,1510,281.31561279296875,0.007052732165902853
3729762.886,634013639,222.08,103147271,0.031080305576324463,-0.1599309742450714,1510,1510,281.2980651855469,0.003900417359545827
3729862.886,634013639,222.08,103147268,0.029099544510245323,-0.1508861780166626,1510,1510,281.2926025390625,0.003895867383107543
3729962.886,634013639,222.08,103147268,0.0284383874386549,-0.14715367555618286,1510,1510,281.3148193359375,0.006129736080765724
3730062.886,634013640,222.08,103147264,0.03320866823196411,-0.1680496633052826,1510,1510,281.3519287109375,0.008268170058727264
3730162.886,634013640,222.08,103147264,0.03545709699392319,-0.18099549412727356,1510,1510,281.38958740234375,0.00853046402335167
3730262.886,634013640,222.08,103147260,0.03684960678219795,-0.17067688703536987,1510,1510,281.4267578125,0.007577985525131226
3730362.886,634013640,222.08,103147260,0.03625043109059334,-0.1487274020910263,1510,1510,281.4394226074219,0.005661409348249435
3730462.886,634013640,222.07,103147256,0.026922540739178658,-0.1558225154876709,1510,1510,281.45159912109375,0.0036021671257913113
3730562.886,634013640,222.07,103147256,0.022982092574238777,-0.16172440350055695,1510,1510,281.46502685546875,0.0024685757234692574
3730662.886,634013641,222.07,103147252,0.01564786024391651,-0.16439343988895416,1510,1510,281.46893310546875,0.0037846150808036327
3730762.886,634013641,222.07,103147252,0.027715785428881645,-0.17096766829490662,1510,1510,281.46710205078125,0.00610565347597003
3730862.886,634013641,222.07,103147248,0.03643305227160454,-0.16868209838867188,1510,1510,281.4610595703125,0.007607994135469198
3730962.886,634013641,222.07,103147248,0.04162333160638809,-0.16336140036582947,1510,1510,281.451171875,0.006337150931358337
3731062.886,634013642,222.07,103147245,0.036995403468608856,-0.15152208507061005,1510,1510,281.4497375488281,0.003055923618376255
3731162.886,634013642,222.07,103147245,0.02951199933886528,-0.16130392253398895,1510,1510,281.4531555175781,0.0011810692958533764
3731262.886,634013642,222.07,103147240,0.021813519299030304,-0.15534527599811554,1510,1510,281.45697021484375,0.002405862556770444
3731362.886,634013642,222.07,103147240,0.024435855448246002,-0.16260859370231628,1510,1510,281.45684814453125,0.004397402983158827
3731462.886,634013643,222.07,103147237,0.023599212989211082,-0.16888606548309326,1510,1510,281.4533996582031,0.006138625089079142
3731562.886,634013643,222.07,103147237,0.037015751004219055,-0.17763997614383698,1510,1510,281.45220947265625,0.006049226503819227
3731662.886,634013644,222.06,103147233,0.04025353118777275,-0.159207284450531,1510,1510,281.449951171875,0.0051604448817670345
3731762.886,634013644,222.06,103147233,0.04172739386558533,-0.14899270236492157,1510,1510,281.4321594238281,0.0036330095026642084
3731862.886,634013644,222.05,103147229,0.03878272697329521,-0.1584385186433792,1510,1510,281.4365539550781,0.0025054686702787876
3731962.886,634013644,222.05,103147229,0.0223393552005291,-0.16713589429855347,1510,1510,281.43255615234375,0.0031704255379736423
3732062.886,634013645,222.05,103147225,0.01516012568026781,-0.1698000133037567,1510,1510,281.4333801269531,0.0041005974635481834
3732162.886,634013645,222.05,103147225,0.024271808564662933,-0.1664193719625473,1510,1510,281.47601318359375,0.005352656356990337
3732262.886,634013645,222.04,103147221,0.03391967713832855,-0.16124621033668518,1510,1510,281.5093688964844,0.006099965889006853
3732362.886,634013645,222.04,103147221,0.04608197882771492,-0.15690650045871735,1510,1510,281.52630615234375,0.004507279954850674
3732462.886,634013646,222.04,103147217,0.0369083508849144,-0.15726932883262634,1510,1510,281.53607177734375,0.0023537103552371264
3732562.886,634013646,222.04,103147217,0.029821082949638367,-0.16251638531684875,1510,1510,281.5357360839844,0.0015232781879603863
3732662.886,634013647,222.04,103147213,0.02122068777680397,-0.16529138386249542,1510,1510,281.52532958984375,0.0028176854830235243
3732762.886,634013647,222.04,103147213,0.028423761948943138,-0.17087000608444214,1510,1510,281.54107666015625,0.004913052543997765
3732862.886,634013647,222.03,103147209,0.037978723645210266,-0.16563333570957184,1510,1510,281.56573486328125,0.005843205377459526
3732962.886,634013647,222.03,103147209,0.0405660979449749,-0.16004475951194763,1510,1510,281.5726318359375,0.0049345530569553375
3733062.886,634013648,222.02,103147205,0.03787974640727043,-0.15599720180034637,1510,1510,281.5735168457031,0.0029075753409415483
3733162.886,634013648,222.02,103147205,0.03138817474246025,-0.15447422862052917,1510,1510,281.5931701660156,0.0021682255901396275
3733262.886,634013648,222,103147200,0.01958606019616127,-0.1642056405544281,1510,1510,281.6106872558594,0.0031992034055292606
3733362.886,634013648,222,103147200,0.027853049337863922,-0.16409005224704742,1510,1510,281.6297302246094,0.004765721969306469
3733462.886,634013648,222,103147196,0.026807699352502823,-0.16585507988929749,1510,1510,281.6514587402344,0.005438830703496933
3733562.886,634013648,222,103147196,0.03755492344498634,-0.1665731966495514,1510,1510,281.6664733886719,0.004328705836087465
3733662.886,634013649,221.98,103147191,0.03668010234832764,-0.15880551934242249,1510,1510,281.6893005371094,0.0031773741357028484
3733762.886,634013649,221.98,103147191,0.03343430161476135,-0.15395082533359528,1510,1510,281.6875,0.0033390969038009644
3733862.886,634013650,221.98,103147187,0.028901781886816025,-0.15464456379413605,1510,1510,281.684814453125,0.004401667509227991
3733962.886,634013650,221.98,103147187,0.028449898585677147,-0.16560328006744385,1510,1510,281.67840576171875,0.005313683766871691
3734062.886,634013650,221.97,103147182,0.029199153184890747,-0.1691940426826477,1510,1510,281.67572021484375,0.004812300205230713
3734162.886,634013650,221.97,103147182,0.022453106939792633,-0.1677297055721283,1510,1510,281.688232421875,0.00424862140789628
3734262.886,634013651,221.95,103147177,0.03775643929839134,-0.15501150488853455,1510,1510,281.70526123046875,0.00423742551356554
3734362.886,634013651,221.95,103147177,0.038381852209568024,-0.16081151366233826,1510,1510,281.73046875,0.005001706071197987
3734462.886,634013651,221.93,103147173,0.02816678397357464,-0.1736295223236084,1510,1510,281.765625,0.005579527001827955
3734562.886,634013651,221.93,103147173,0.02262398600578308,-0.17003512382507324,1510,1510,281.7996826171875,0.006059496663510799
3734662.886,634013652,221.92,103147169,0.023325104266405106,-0.16523079574108124,1510,1510,281.812255859375,0.006474772933870554
3734762.886,634013652,221.92,103147169,0.029284337535500526,-0.15662233531475067,1510,1510,281.8205871582031,0.0065616704523563385
3734862.886,634013653,221.91,103147164,0.04014299064874649,-0.14751793444156647,1510,1510,281.8209228515625,0.006460599601268768
3734962.886,634013653,221.91,103147164,0.031045852228999138,-0.16261041164398193,1510,1510,281.8148498535156,0.006284563802182674
3735062.886,634013653,221.89,103147160,0.026890993118286133,-0.16963079571723938,1510,1510,281.85107421875,0.0065829819068312645
3735162.886,634013653,221.89,103147160,0.020016850903630257,-0.1750691831111908,1510,1510,281.90606689453125,0.007758329156786203
3735262.886,634013653,221.89,103147154,0.03114592283964157,-0.1669422686100006,1510,1510,281.9645690917969,0.009410636499524117
3735362.886,634013653,221.89,103147154,0.03460334986448288,-0.16192492842674255,1510,1510,282.00982666015625,0.009687954559922218
3735462.886,634013654,221.88,103147150,0.03093227557837963,-0.15987765789031982,1510,1510,282.0794372558594,0.009100533090531826
3735562.886,634013654,221.88,103147150,0.019237104803323746,-0.14851848781108856,1510,1510,282.159912109375,0.009367544203996658
3735662.886,634013655,221.86,103147145,0.019819211214780807,-0.1582094132900238,1510,1510,282.2014465332031,0.010693632066249847
3735762.886,634013655,221.86,103147145,0.02157699316740036,-0.16246162354946136,1510,1510,282.2508850097656,0.011847440153360367
3735862.886,634013655,221.85,103147140,0.029599826782941818,-0.18465247750282288,1510,1510,282.31622314453125,0.01185690425336361
3735962.886,634013655,221.85,103147140,0.029553819447755814,-0.16124124825000763,1510,1510,282.3697509765625,0.011561606079339981
3736062.886,634013656,221.83,103147136,0.03367964178323746,-0.1480831652879715,1510,1510,282.43035888671875,0.013074245303869247
3736162.886,634013656,221.83,103147136,0.030386891216039658,-0.1422542780637741,1510,1510,282.4937438964844,0.014937794767320156
3736262.886,634013657,221.81,103147132,0.03125559166073799,-0.15818491578102112,1510,1510,282.5625,0.01526455208659172
3736362.886,634013657,221.81,103147132,0.02149861305952072,-0.1646823287010193,1510,1510,282.63897705078125,0.01445611659437418
3736462.886,634013657,221.8,103147127,0.021744150668382645,-0.17150363326072693,1510,1510,282.73065185546875,0.013755574822425842
3736562.886,634013657,221.8,103147127,0.026503723114728928,-0.1614348590373993,1510,1510,282.81573486328125,0.014849411323666573
3736662.886,634013658,221.78,103147123,0.03573817014694214,-0.15467220544815063,1510,1510,282.9068603515625,0.017117489129304886
3736762.886,634013658,221.78,103147123,0.03383832424879074,-0.1549760103225708,1510,1510,282.99139404296875,0.019503245130181313
3736862.886,634013658,221.76,103147118,0.042351316660642624,-0.1514108031988144,1510,1510,283.0595703125,0.01944420114159584
3736962.886,634013658,221.76,103147118,0.028952762484550476,-0.15963798761367798,1510,1510,283.1043701171875,0.01764889992773533
3737062.886,634013659,221.75,103147114,0.017044000327587128,-0.15722344815731049,1510,1510,283.1834411621094,0.016491984948515892
3737162.886,634013659,221.75,103147114,0.017363261431455612,-0.16389542818069458,1510,1510,283.29766845703125,0.01776132360100746
3737262.886,634013659,221.75,103147110,0.026521915569901466,-0.1656947135925293,1510,1510,283.41387939453125,0.02009192667901516
3737362.886,634013659,221.75,103147110,0.028173284605145454,-0.15967026352882385,1510,1510,283.5422668457031,0.02137100324034691
3737462.886,634013660,221.73,103147106,0.03554640710353851,-0.15297865867614746,1510,1510,283.6971435546875,0.021774867549538612
3737562.886,634013660,221.73,103147106,0.037208445370197296,-0.15362431108951569,1510,1510,283.8382263183594,0.02128022164106369
3737662.886,634013660,221.71,103147101,0.030048739165067673,-0.16181664168834686,1510,1510,283.9417419433594,0.01994369365274906
3737762.886,634013660,221.71,103147101,0.03374886512756348,-0.16688963770866394,1510,1510,284.025146484375,0.018958907574415207
3737862.886,634013661,221.7,103147097,0.03185781091451645,-0.16417667269706726,1510,1510,284.1182861328125,0.019210102036595345
3737962.886,634013661,221.7,103147097,0.01798545941710472,-0.16987238824367523,1510,1510,284.23004150390625,0.021064259111881256
3738062.886,634013662,221.69,103147092,0.03148870915174484,-0.16490456461906433,1510,1510,284.351806640625,0.023168068379163742
3738162.886,634013662,221.69,103147092,0.042330093681812286,-0.16254955530166626,1510,1510,284.4792175292969,0.02380729466676712
3738262.886,634013661,221.7,103147089,0.03725036233663559,-0.15515808761119843,1510,1510,284.5760498046875,0.02219340391457081
3738362.886,634013661,221.7,103147089,0.03159203380346298,-0.15061429142951965,1510,1510,284.689697265625,0.02011260762810707
3738462.886,634013662,221.68,103147084,0.030010730028152466,-0.16013416647911072,1510,1510,284.82647705078125,0.019500134512782097
3738562.886,634013662,221.68,103147084,0.017381666228175163,-0.17586477100849152,1510,1510,284.96441650390625,0.021048612892627716
3738662.886,634013663,221.67,103147080,0.029701808467507362,-0.171284019947052,1510,1510,285.09893798828125,0.02177267149090767
3738762.886,634013663,221.67,103147080,0.0436876118183136,-0.1651158630847931,1510,1510,285.2203369140625,0.022570177912712097
3738862.886,634013663,221.66,103147076,0.041210003197193146,-0.15498222410678864,1510,1510,285.3299255371094,0.021822191774845123
3738962.886,634013663,221.66,103147076,0.03197155147790909,-0.15413516759872437,1510,1510,285.4261169433594,0.020322013646364212
3739062.886,634013664,221.65,103147072,0.029771964997053146,-0.15547141432762146,1510,1510,285.5342712402344,0.019852083176374435
3739162.886,634013664,221.65,103147072,0.02478005178272724,-0.17200867831707,1510,1510,285.64697265625,0.019277019426226616
3739262.886,634013664,221.64,103147068,0.028844153508543968,-0.17861288785934448,1510,1510,285.76959228515625,0.018538132309913635
3739362.886,634013664,221.64,103147068,0.03290644288063049,-0.15811482071876526,1510,1510,285.8941955566406,0.019313126802444458
3739462.886,634013665,221.64,103147065,0.029859518632292747,-0.14813232421875,1510,1510,286.009521484375,0.02041100151836872
3739562.886,634013665,221.64,103147065,0.032078396528959274,-0.15737031400203705,1510,1510,286.10693359375,0.02112126164138317
3739662.886,634013666,221.63,103147060,0.04095793887972832,-0.16868190467357635,1510,1510,286.20501708984375,0.01984104886651039
3739762.886,634013666,221.63,103147060,0.025633590295910835,-0.1723790168762207,1510,1510,286.29449462890625,0.016720429062843323
3739862.886,634013667,221.63,103147056,0.027103669941425323,-0.15834122896194458,1510,1510,286.368408203125,0.014970668591558933
3739962.886,634013667,221.63,103147056,0.02641778253018856,-0.1516301929950714,1510,1510,286.4528503417969,0.015942998230457306
3740062.886,634013667,221.62,103147052,0.03186821937561035,-0.164486363530159,1510,1510,286.5560302734375,0.018701253458857536
3740162.886,634013667,221.62,103147052,0.02723059616982937,-0.1637851744890213,1510,1510,286.6587219238281,0.01916097290813923
3740262.886,634013668,221.61,103147048,0.036465834826231,-0.1635598987340927,1510,1510,286.7524719238281,0.01710089109838009
3740362.886,634013668,221.61,103147048,0.033640056848526,-0.16058564186096191,1510,1510,286.8248291015625,0.014607268385589123
3740462.886,634013669,221.6,103147043,0.03592681512236595,-0.1596318930387497,1510,1510,286.90618896484375,0.013779891654849052
3740562.886,634013669,221.6,103147043,0.03339621424674988,-0.1653514802455902,1510,1510,287.0251770019531,0.01439283974468708
3740662.886,634013670,221.58,103147038,0.03324434533715248,-0.17004884779453278,1510,1510,287.09228515625,0.015486851334571838
3740762.886,634013670,221.58,103147038,0.037330470979213715,-0.16081610321998596,1510,1510,287.09228515625,0.015932699665427208
3740862.886,634013671,221.6,103147036,0.028410620987415314,-0.16165253520011902,1510,1510,287.1631774902344,0.015255510807037354
3740962.886,634013671,221.6,103147036,0.034851595759391785,-0.16201968491077423,1510,1510,287.19927978515625,0.013849819079041481
3741062.886,634013671,221.59,103147033,0.034447081387043,-0.1591748148202896,1510,1510,287.2579345703125,0.012203694321215153