timestamp(ms),RCIN.C1,RCIN.C3,GPS.Lat,GPS.Alt,GPS.Lng,IMU.AccX,IMU.AccY,DCM.Yaw,IMU.GyrZ
4355362.728,1506,1493,634014196,218.41,103149156,0.02056914195418358,-0.15553826093673706,297.0946350097656,0.002841569483280182
4355462.728,1506,1493,634014197,218.38,103149154,0.02928188629448414,-0.16377857327461243,297.1568298339844,0.004499406088143587
4355562.728,1506,1493,634014197,218.38,103149154,0.028344912454485893,-0.16470853984355927,297.18463134765625,0.003977048210799694
4355662.728,1506,1493,634014197,218.37,103149152,0.03307872265577316,-0.16460442543029785,297.20098876953125,0.0025325093884021044
4355762.728,1506,1493,634014197,218.37,103149152,0.028189407661557198,-0.15863947570323944,297.21832275390625,0.0019219936802983284
4355862.728,1506,1493,634014198,218.36,103149150,0.032084379345178604,-0.16082601249217987,297.2338562011719,0.0025560634676367044
4355962.728,1506,1493,634014198,218.36,103149150,0.03287317231297493,-0.16223056614398956,297.2480773925781,0.002952484879642725
4356062.728,1506,1493,634014198,218.34,103149148,0.028592118993401527,-0.15948966145515442,297.2485046386719,0.002915872260928154
4356162.728,1506,1493,634014198,218.34,103149148,0.024910075590014458,-0.15636886656284332,297.24908447265625,0.0026561340782791376
4356262.728,1506,1493,634014198,218.33,103149146,0.02436179853975773,-0.15980203449726105,297.265869140625,0.0027277700137346983
4356362.728,1506,1493,634014198,218.33,103149146,0.025156455114483833,-0.1655447632074356,297.296875,0.0031293807551264763
4356462.728,1506,1493,634014199,218.32,103149145,0.03182472288608551,-0.16266702115535736,297.329833984375,0.002514212392270565
4356562.728,1506,1493,634014199,218.32,103149145,0.026832059025764465,-0.1643677055835724,297.3665771484375,0.002142127836123109
4356662.728,1506,1493,634014200,218.31,103149143,0.025566676631569862,-0.16250993311405182,297.4037780761719,0.0021406575106084347
4356762.728,1506,1493,634014200,218.31,103149143,0.024579323828220367,-0.1563337743282318,297.42315673828125,0.0021597619634121656
4356862.728,1506,1493,634014200,218.29,103149141,0.023853670805692673,-0.16349445283412933,297.4454040527344,0.0021221782080829144
4356962.728,1506,1493,634014200,218.29,103149141,0.02684936672449112,-0.16765311360359192,297.4574890136719,0.0027865455485880375
4357062.728,1506,1493,634014200,218.28,103149139,0.02941802889108658,-0.16710078716278076,297.4637145996094,0.001975608291104436
4357162.728,1506,1493,634014200,218.28,103149139,0.02805458754301071,-0.15744535624980927,297.46380615234375,0.0015291802119463682
4357262.728,1506,1493,634014201,218.26,103149137,0.027605261653661728,-0.16334572434425354,297.4770202636719,0.001489276997745037
4357362.728,1506,1493,634014201,218.26,103149137,0.026729386299848557,-0.16865506768226624,297.5158386230469,0.00234609330072999
4357462.728,1506,1493,634014201,218.25,103149135,0.02290816605091095,-0.16657580435276031,297.55889892578125,0.0020086392760276794
4357562.728,1506,1493,634014201,218.25,103149135,0.03221927210688591,-0.15909749269485474,297.5863342285156,0.0017031666357070208
4357662.728,1506,1493,634014202,218.23,103149134,0.033954210579395294,-0.16146983206272125,297.61993408203125,0.0019469094695523381
4357762.728,1506,1493,634014202,218.23,103149134,0.03211985528469086,-0.16148105263710022,297.63653564453125,0.0013831545365974307
4357862.728,1504,1493,634014202,218.23,103149133,0.029885876923799515,-0.16599157452583313,297.6514587402344,0.0010555167682468891
4357962.728,1504,1493,634014202,218.23,103149133,0.028295008465647697,-0.1580544263124466,297.6510925292969,0.0009383158758282661
4358062.728,1503,1493,634014202,218.21,103149131,0.021505946293473244,-0.15539300441741943,297.68182373046875,0.0014364004600793123
4358162.728,1503,1493,634014202,218.21,103149131,0.027849365025758743,-0.1661670207977295,297.6908264160156,0.0017678365111351013
4358262.728,1503,1493,634014203,218.2,103149130,0.028455577790737152,-0.17017747461795807,297.697998046875,0.0015843234723433852
4358362.728,1503,1493,634014203,218.2,103149130,0.03408987820148468,-0.16454003751277924,297.7024230957031,0.001008324441500008
4358462.728,1503,1493,634014203,218.18,103149128,0.019935764372348785,-0.16116398572921753,297.7113342285156,0.0007044652011245489
4358562.728,1503,1493,634014203,218.18,103149128,0.023188961669802666,-0.15892744064331055,297.73785400390625,0.0008825251716189086
4358662.728,1503,1493,634014204,218.17,103149126,0.028097573667764664,-0.1528233140707016,297.7583923339844,0.0011999410344287753
4358762.728,1503,1493,634014204,218.17,103149126,0.026993149891495705,-0.16439561545848846,297.7691650390625,0.0006000131252221763
4358862.728,1503,1493,634014204,218.15,103149124,0.027423085644841194,-0.1700589954853058,297.77191162109375,0.0005779477651230991
4358962.728,1503,1493,634014204,218.15,103149124,0.02691708691418171,-0.16684181988239288,297.7877502441406,0.0005457805236801505
4359062.728,1503,1493,634014204,218.14,103149122,0.02879653498530388,-0.15833844244480133,297.8031005859375,0.0011534803779795766
4359162.728,1503,1493,634014204,218.14,103149122,0.029427019879221916,-0.15887956321239471,297.8115539550781,0.0009301324607804418
4359262.728,1503,1493,634014205,218.13,103149120,0.02443745918571949,-0.1722448468208313,297.808349609375,-0.0003210596914868802
4359362.728,1503,1493,634014205,218.13,103149120,0.02043813094496727,-0.16016031801700592,297.7972717285156,-0.00017941488476935774
4359462.728,1506,1493,634014205,218.11,103149117,0.02499772608280182,-0.14977429807186127,297.80401611328125,0.0004398357414174825
4359562.728,1589,1493,634014205,218.11,103149117,0.00926443375647068,-0.1614622175693512,297.83428955078125,0.0011770583223551512
4359662.728,1901,1493,634014206,218.11,103149115,-0.027203774079680443,-0.13072192668914795,297.9946594238281,0.017072893679142
4359762.728,1901,1493,634014206,218.11,103149115,0.07281672954559326,-0.1161154955625534,298.30804443359375,0.048217326402664185
4359862.728,1891,1493,634014206,218.1,103149115,-0.24290135502815247,0.08987557888031006,299.0035400390625,0.0921960398554802
4359962.728,1513,1493,634014206,218.1,103149115,0.03909642621874809,-0.04325072094798088,300.63079833984375,0.24490000307559967
4360062.728,1509,1493,634014207,218.08,103149115,0.03878440335392952,-0.3979044258594513,301.9960021972656,0.2645038068294525
4360162.728,1516,1493,634014207,218.08,103149115,0.3287653923034668,-0.10032674670219421,303.1158447265625,0.20756489038467407
4360262.728,1741,1493,634014207,218.06,103149115,-0.3108288049697876,-0.00308530917391181,304.2654724121094,0.19967372715473175
4360362.728,1901,1493,634014207,218.06,103149115,0.09819693863391876,-0.28729403018951416,305.7486877441406,0.2500879168510437
4360462.728,1896,1493,634014207,218.05,103149116,-0.27769121527671814,-0.0362846814095974,307.4687194824219,0.2953490614891052
4360562.728,1788,1493,634014207,218.05,103149116,-0.23772399127483368,0.12497999519109726,309.6880187988281,0.3525037467479706
4360662.728,1734,1493,634014207,218.03,103149119,-0.6729738712310791,-0.01861182227730751,312.8293151855469,0.5096221566200256
4360762.728,1641,1493,634014207,218.03,103149119,-0.007901255041360855,-0.21912620961666107,316.28759765625,0.6086126565933228
4360862.728,1639,1493,634014207,218.02,103149124,-0.00829074066132307,0.014415008947253227,319.4314880371094,0.5659745335578918
4360962.728,1601,1493,634014207,218.02,103149124,-0.4229770004749298,-0.03657279163599014,322.7564392089844,0.5701120495796204
4361062.728,1601,1493,634014206,218,103149130,-0.29018867015838623,-0.2832624912261963,326.40594482421875,0.6337469220161438
4361162.728,1579,1493,634014206,218,103149130,-0.05585913360118866,-0.32911717891693115,330.0848388671875,0.6639270186424255
4361262.728,1694,1493,634014205,218.01,103149135,-0.5280290842056274,-0.4372865855693817,333.6811828613281,0.6349875330924988
4361362.728,1795,1493,634014205,218.01,103149135,-0.7992420196533203,-0.29757094383239746,337.92083740234375,0.7050026655197144
4361462.728,1753,1492,634014201,218,103149139,-0.4019375443458557,-0.18751613795757294,342.6611022949219,0.8341372609138489
4361562.728,1650,1490,634014201,218,103149139,0.13993608951568604,-0.3745144307613373,347.2916564941406,0.8559952974319458
4361662.728,1537,1490,634014197,217.98,103149145,0.4298033118247986,-0.29671710729599,351.287109375,0.7562000751495361
4361762.728,1521,1489,634014197,217.98,103149145,0.12243662029504776,-0.2277325689792633,354.84881591796875,0.6456093788146973
4361862.728,1519,1489,634014193,217.96,103149147,0.0735405832529068,-0.50595623254776,358.34320068359375,0.6122251749038696
4361962.728,1652,1488,634014193,217.96,103149147,0.06277830898761749,-0.6297565698623657,1.5410221815109253,0.5835815072059631
4362062.728,1736,1488,634014190,217.97,103149149,-0.014924095943570137,-0.5554994344711304,4.311234474182129,0.5150672793388367
4362162.728,1773,1480,634014190,217.97,103149149,-0.09510906040668488,-0.4369165897369385,6.661668300628662,0.4293387532234192
4362262.728,1514,1476,634014187,217.98,103149149,-0.1747068613767624,-0.2331615835428238,8.790754318237305,0.37706902623176575
4362362.728,1508,1476,634014187,217.98,103149149,-0.038516782224178314,-0.0925494134426117,10.817072868347168,0.35874325037002563
4362462.728,1896,1476,634014184,217.98,103149149,0.19840428233146667,-0.0950997993350029,12.753412246704102,0.34044748544692993
4362562.728,1896,1476,634014184,217.98,103149149,0.2703306972980499,-0.050011295825242996,14.666800498962402,0.3384096026420593
4362662.728,1510,1476,634014182,217.99,103149150,0.23468086123466492,-0.23439307510852814,16.505870819091797,0.33207374811172485
4362762.728,1490,1476,634014182,217.99,103149150,0.24457843601703644,-0.25329864025115967,18.128681182861328,0.29868853092193604
4362862.728,1504,1476,634014181,218.01,103149150,0.13008743524551392,-0.21733519434928894,19.572649002075195,0.26154306530952454
4362962.728,1504,1476,634014181,218.01,103149150,0.04548657312989235,-0.3600175380706787,20.79745864868164,0.22732961177825928
4363062.728,1675,1476,634014180,218.03,103149150,-0.09931941330432892,-0.16832128167152405,21.968034744262695,0.2030356377363205
4363162.728,1848,1476,634014180,218.03,103149150,0.11253799498081207,-0.07068486511707306,23.280134201049805,0.22574755549430847
4363262.728,1732,1476,634014178,218.05,103149149,-0.05330453813076019,0.004847794771194458,24.744239807128906,0.25316256284713745
4363362.728,1640,1475,634014178,218.05,103149149,-0.2812647819519043,0.03249827027320862,26.638017654418945,0.3137069344520569
4363462.728,1526,1475,634014178,218.07,103149149,0.3329792320728302,-0.16591447591781616,28.58316421508789,0.35752660036087036
4363562.728,1529,1475,634014178,218.07,103149149,0.24770870804786682,-0.22922733426094055,30.052993774414062,0.28325217962265015
4363662.728,1649,1475,634014178,218.09,103149147,-0.7519916892051697,-0.11041565239429474,31.447412490844727,0.22530588507652283
4363762.728,1630,1475,634014178,218.09,103149147,-0.7464247941970825,0.10370393097400665,33.555789947509766,0.32232871651649475
4363862.728,1503,1475,634014177,218.12,103149143,0.0856267437338829,-0.31576457619667053,35.9857292175293,0.4422135353088379
4363962.728,1503,1475,634014177,218.12,103149143,0.21673612296581268,-0.32531797885894775,37.985321044921875,0.38103923201560974
4364062.728,1502,1475,634014176,218.14,103149140,0.13812924921512604,-0.18296614289283752,39.686214447021484,0.3064645230770111
4364162.728,1502,1475,634014176,218.14,103149140,0.20443326234817505,-0.290802538394928,41.25210189819336,0.27325087785720825
4364262.728,1462,1475,634014176,218.16,103149137,0.12767153978347778,-0.2950490713119507,42.64972686767578,0.2505149841308594
4364362.728,1462,1475,634014176,218.16,103149137,0.11631330847740173,-0.20513232052326202,43.92831802368164,0.22906899452209473
4364462.728,1253,1475,634014176,218.18,103149134,0.1013927310705185,-0.28486576676368713,45.08842468261719,0.20965541899204254
4364562.728,1512,1475,634014176,218.18,103149134,0.18421277403831482,-0.2893509566783905,45.98294448852539,0.16585305333137512
4364662.728,1495,1474,634014176,218.2,103149130,0.043997738510370255,-0.18340373039245605,46.70847702026367,0.130227193236351
4364762.728,1494,1474,634014176,218.2,103149130,0.1782786250114441,-0.21387501060962677,47.284873962402344,0.10976943373680115
4364862.728,1494,1474,634014177,218.21,103149128,0.11065582931041718,-0.16078682243824005,47.74404525756836,0.08463265001773834
4364962.728,1459,1474,634014177,218.21,103149128,0.059758320450782776,-0.1325439065694809,48.173580169677734,0.07198002934455872
4365062.728,1500,1474,634014177,218.23,103149127,-0.03529183194041252,-0.1612757444381714,48.594879150390625,0.07253612577915192
4365162.728,1492,1474,634014177,218.23,103149127,0.08893740922212601,-0.12279914319515228,48.991825103759766,0.070728600025177
4365262.728,1491,1474,634014176,218.24,103149124,0.018623022362589836,-0.15429861843585968,49.28621292114258,0.0551874078810215
4365362.728,1491,1474,634014176,218.24,103149124,0.07975997030735016,-0.21761628985404968,49.47739028930664,0.03434306010603905
4365462.728,1454,1474,634014178,218.26,103149120,0.005273767746984959,-0.1757742464542389,49.63741683959961,0.025014124810695648
4365562.728,1480,1478,634014178,218.26,103149120,0.03178419917821884,-0.23310507833957672,49.734107971191406,0.022409897297620773
4365662.728,1479,1480,634014180,218.27,103149116,-0.018879175186157227,-0.2203056514263153,49.79319763183594,0.011033706367015839
4365762.728,1479,1480,634014180,218.27,103149116,0.029031213372945786,-0.07889527082443237,49.889122009277344,0.014768380671739578
4365862.728,1479,1480,634014181,218.3,103149113,0.0290659349411726,-0.14177711308002472,50.02041244506836,0.01731976866722107
4365962.728,1479,1480,634014181,218.3,103149113,0.07583161443471909,-0.19361531734466553,50.06319808959961,0.009734509512782097
4366062.728,1479,1480,634014183,218.31,103149110,0.04889172688126564,-0.09735557436943054,50.04580307006836,-0.0012008151970803738
4366162.728,1479,1480,634014183,218.31,103149110,0.046316370368003845,-0.15540112555027008,50.02118682861328,-0.006575883831828833
4366262.728,1472,1481,634014184,218.33,103149107,-0.002733774483203888,-0.1772894710302353,50.00135803222656,-0.00689582759514451
4366362.728,1473,1481,634014184,218.33,103149107,0.032822296023368835,-0.13662229478359222,50.00185775756836,-0.0033774736803025007
4366462.728,1473,1481,634014184,218.35,103149105,-0.013507481664419174,-0.15041081607341766,50.05481719970703,0.0022613853216171265
4366562.728,1473,1481,634014184,218.35,103149105,0.029771696776151657,-0.18823686242103577,50.08208084106445,0.004704343155026436
4366662.728,1473,1481,634014185,218.36,103149103,0.04017825424671173,-0.13901641964912415,50.053890228271484,0.00037464540218934417
4366762.728,1473,1481,634014185,218.36,103149103,0.06567025929689407,-0.15337884426116943,49.99275588989258,-0.009627359919250011
4366862.728,1473,1481,634014186,218.38,103149100,0.015239190310239792,-0.16764318943023682,49.89426040649414,-0.018676307052373886
4366962.728,1473,1481,634014186,218.38,103149100,-0.0029461411759257317,-0.13830846548080444,49.82360076904297,-0.017562467604875565
4367062.728,1473,1481,634014187,218.4,103149098,-0.01695292443037033,-0.1635168194770813,49.843963623046875,-0.004216957371681929
4367162.728,1473,1481,634014187,218.4,103149098,0.03786323964595795,-0.17169956862926483,49.889190673828125,0.00583135150372982
4367262.728,1473,1481,634014188,218.42,103149095,0.07059252262115479,-0.13120505213737488,49.87200164794922,0.0010149662848562002
4367362.728,1473,1481,634014188,218.42,103149095,0.06780564039945602,-0.14064177870750427,49.77030563354492,-0.012127090245485306
4367462.728,1473,1481,634014189,218.43,103149092,0.005838172044605017,-0.16295985877513885,49.659568786621094,-0.019700899720191956
4367562.728,1473,1481,634014189,218.43,103149092,0.010306407697498798,-0.17512597143650055,49.60276412963867,-0.016757724806666374
4367662.728,1473,1481,634014189,218.44,103149089,0.007739901077002287,-0.17037485539913177,49.56771469116211,-0.010314835235476494
4367762.728,1473,1481,634014189,218.44,103149089,0.017563840374350548,-0.15697059035301208,49.56447219848633,-0.005488978698849678
4367862.728,1473,1481,634014190,218.45,103149086,0.028130898252129555,-0.13520048558712006,49.583438873291016,-0.002173106884583831
4367962.728,1473,1481,634014190,218.45,103149086,0.06364734470844269,-0.16298849880695343,49.554237365722656,-0.0036873340141028166
4368062.728,1473,1481,634014191,218.45,103149084,0.05461909621953964,-0.15984931588172913,49.45960998535156,-0.012003198266029358
4368162.728,1473,1481,634014191,218.45,103149084,0.028180044144392014,-0.1411893665790558,49.3642692565918,-0.019985945895314217
4368262.728,1473,1481,634014192,218.47,103149081,-0.0019511578138917685,-0.15506602823734283,49.3006706237793,-0.019196614623069763
4368362.728,1473,1481,634014192,218.47,103149081,0.004586881957948208,-0.1690443605184555,49.283790588378906,-0.010979505255818367
4368462.728,1473,1481,634014192,218.47,103149079,0.02837621420621872,-0.1765470951795578,49.27562713623047,-0.0033447935711592436
4368562.728,1473,1481,634014192,218.47,103149079,0.04689309746026993,-0.1600836217403412,49.257476806640625,-0.001946430653333664
4368662.728,1473,1481,634014192,218.48,103149077,0.05345058813691139,-0.15247157216072083,49.17756271362305,-0.00900836568325758
4368762.728,1473,1481,634014192,218.48,103149077,0.042502522468566895,-0.1357305347919464,49.062896728515625,-0.01815161295235157
4368862.728,1473,1481,634014193,218.48,103149076,0.01121518574655056,-0.15309646725654602,48.979366302490234,-0.020578185096383095
4368962.728,1473,1481,634014193,218.48,103149076,0.01626136340200901,-0.19013835489749908,48.93226623535156,-0.014616354368627071
4369062.728,1473,1481,634014193,218.49,103149074,0.031406205147504807,-0.17549733817577362,48.90178680419922,-0.008153872564435005
4369162.728,1473,1481,634014193,218.49,103149074,0.035575106739997864,-0.1564725935459137,48.857261657714844,-0.0073495181277394295
4369262.728,1473,1481,634014193,218.5,103149073,0.019339196383953094,-0.13296355307102203,48.7872314453125,-0.009885964915156364
4369362.728,1473,1481,634014193,218.5,103149073,0.030749278143048286,-0.15336973965168,48.697044372558594,-0.011392672546207905
4369462.728,1473,1481,634014193,218.51,103149072,0.05937552824616432,-0.17840255796909332,48.60013198852539,-0.01402302272617817
4369562.728,1473,1481,634014193,218.51,103149072,0.043281011283397675,-0.1772637665271759,48.52480697631836,-0.017240338027477264
4369662.728,1473,1481,634014193,218.51,103149070,0.018336694687604904,-0.1645021289587021,48.463157653808594,-0.017863605171442032
4369762.728,1473,1481,634014193,218.51,103149070,0.01912766508758068,-0.15504035353660583,48.41667938232422,-0.013271143659949303
4369862.728,1473,1481,634014194,218.52,103149068,0.011547822505235672,-0.15769681334495544,48.386077880859375,-0.007897267118096352
4369962.728,1473,1481,634014194,218.52,103149068,0.03664228320121765,-0.14360415935516357,48.352169036865234,-0.005660711787641048
4370062.728,1473,1481,634014194,218.53,103149067,0.054244041442871094,-0.17013207077980042,48.2861442565918,-0.009357389993965626
4370162.728,1473,1481,634014194,218.53,103149067,0.05519567430019379,-0.1694830358028412,48.17516326904297,-0.01859262026846409
4370262.728,1473,1481,634014194,218.53,103149066,0.021321486681699753,-0.15381798148155212,48.0443000793457,-0.02467682585120201
4370362.728,1473,1481,634014194,218.53,103149066,-0.012196904048323631,-0.1534036546945572,47.9730224609375,-0.01925135776400566
4370462.728,1473,1481,634014194,218.54,103149065,0.007733788341283798,-0.16884320974349976,47.953956604003906,-0.007695227395743132
4370562.728,1473,1481,634014194,218.54,103149065,0.05199180543422699,-0.18926367163658142,47.930816650390625,-0.003963145427405834
4370662.728,1473,1481,634014193,218.54,103149063,0.07330842316150665,-0.15021255612373352,47.87204360961914,-0.011369423009455204
4370762.728,1473,1481,634014193,218.54,103149063,0.047576602548360825,-0.13617724180221558,47.757408142089844,-0.01890672743320465
4370862.728,1473,1481,634014193,218.55,103149062,0.02410246431827545,-0.15566188097000122,47.645347595214844,-0.019838878884911537
4370962.728,1473,1481,634014193,218.55,103149062,0.015199190005660057,-0.1819801926612854,47.552249908447266,-0.017368435859680176
4371062.728,1473,1481,634014193,218.56,103149062,0.02459264174103737,-0.1695152372121811,47.47488021850586,-0.015289222821593285
4371162.728,1473,1481,634014193,218.56,103149062,0.014109364710748196,-0.13933533430099487,47.42786407470703,-0.013561863452196121
4371262.728,1473,1481,634014193,218.57,103149060,0.011963428929448128,-0.14485228061676025,47.41188430786133,-0.009510400705039501
4371362.728,1473,1481,634014193,218.57,103149060,0.05274500325322151,-0.1705901026725769,47.380149841308594,-0.00784875825047493
4371462.728,1506,1481,634014193,218.58,103149059,0.07013116776943207,-0.18778985738754272,47.28452682495117,-0.01397642120718956
4371562.728,1482,1481,634014193,218.58,103149059,-0.09954427182674408,-0.09264495968818665,47.225215911865234,-0.020356815308332443
4371662.728,1482,1481,634014193,218.6,103149058,0.07721033692359924,-0.08312604576349258,47.232398986816406,-0.0007478088373318315
4371762.728,1484,1481,634014193,218.6,103149058,-0.023037653416395187,-0.13836398720741272,47.27899169921875,0.005764280445873737
4371862.728,1478,1481,634014193,218.61,103149057,0.07208360731601715,-0.18829558789730072,47.352821350097656,0.00964993704110384
4371962.728,1488,1481,634014193,218.61,103149057,0.03494130074977875,-0.13214699923992157,47.404273986816406,0.007944951765239239
4372062.728,1901,1481,634014192,218.63,103149056,0.15350449085235596,-0.08644063770771027,47.526180267333984,0.0061195893213152885
4372162.728,1497,1481,634014192,218.63,103149056,0.0741695910692215,-0.14419522881507874,47.76581954956055,0.03619159758090973
4372262.728,1492,1481,634014192,218.65,103149055,0.10046090185642242,-0.16188161075115204,47.97036361694336,0.041165050119161606
4372362.728,1491,1481,634014192,218.65,103149055,0.055657997727394104,-0.1395852118730545,48.17397689819336,0.034255363047122955
4372462.728,1491,1481,634014192,218.66,103149055,0.03778630495071411,-0.1868389993906021,48.38079071044922,0.033181704580783844
4372562.728,1491,1481,634014192,218.66,103149055,0.0014565811725333333,-0.1897946298122406,48.587669372558594,0.03505740687251091
4372662.728,1491,1481,634014192,218.69,103149054,0.004850642289966345,-0.15059097111225128,48.809791564941406,0.03715169429779053
4372762.728,1491,1481,634014192,218.69,103149054,0.020461559295654297,-0.16678187251091003,49.01872634887695,0.03842703998088837
4372862.728,1491,1481,634014192,218.71,103149053,0.04982634633779526,-0.1802223026752472,49.19670104980469,0.035372212529182434
4372962.728,1491,1481,634014192,218.71,103149053,0.06255833804607391,-0.1659815013408661,49.32463073730469,0.028557317331433296
4373062.728,1491,1481,634014192,218.73,103149053,0.053341932594776154,-0.16068638861179352,49.45689392089844,0.023545602336525917
4373162.728,1491,1481,634014192,218.73,103149053,0.0410938523709774,-0.16314613819122314,49.61029052734375,0.022692786529660225
4373262.728,1491,1481,634014192,218.75,103149052,0.03052506409585476,-0.15393328666687012,49.776206970214844,0.02444661781191826
4373362.728,1491,1481,634014192,218.75,103149052,0.010873441584408283,-0.14828842878341675,49.969181060791016,0.02860851399600506
4373462.728,1491,1481,634014192,218.77,103149051,0.02479441836476326,-0.16207605600357056,50.160152435302734,0.031455498188734055
4373562.728,1491,1481,634014192,218.77,103149051,0.058575622737407684,-0.17280025780200958,50.30683135986328,0.027173306792974472
4373662.728,1491,1481,634014192,218.79,103149051,0.04707187041640282,-0.185231551527977,50.391788482666016,0.01861167699098587
4373762.728,1491,1481,634014192,218.79,103149051,0.02086140215396881,-0.16503742337226868,50.4660758972168,0.014178575947880745
4373862.728,1491,1481,634014192,218.8,103149050,0.020664777606725693,-0.16559264063835144,50.57734680175781,0.017569633200764656
4373962.728,1491,1481,634014192,218.8,103149050,0.02880849875509739,-0.1628577709197998,50.719581604003906,0.02186151221394539
4374062.728,1491,1481,634014192,218.82,103149049,0.03510158136487007,-0.14062795042991638,50.854942321777344,0.021684153005480766
4374162.728,1491,1481,634014192,218.82,103149049,0.03359374776482582,-0.1339503824710846,50.973670959472656,0.02020931988954544
4374262.728,1491,1481,634014192,218.83,103149049,0.02664678357541561,-0.1585400551557541,51.09425735473633,0.019609425216913223
4374362.728,1491,1481,634014192,218.83,103149049,0.05245257169008255,-0.20519059896469116,51.17729949951172,0.016303448006510735
4374462.728,1491,1481,634014192,218.85,103149048,0.04217839241027832,-0.1766507625579834,51.22636032104492,0.010721198283135891
4374562.728,1491,1481,634014192,218.85,103149048,0.01686161570250988,-0.15643391013145447,51.28654098510742,0.009211511351168156
4374662.728,1491,1481,634014193,218.87,103149047,-0.0006143490318208933,-0.13751453161239624,51.377166748046875,0.01417557243257761
4374762.728,1491,1481,634014193,218.87,103149047,0.027352847158908844,-0.15824100375175476,51.47442626953125,0.019830510020256042
4374862.728,1491,1481,634014193,218.88,103149046,0.05610167980194092,-0.17130175232887268,51.554298400878906,0.018913142383098602
4374962.728,1491,1481,634014193,218.88,103149046,0.056440986692905426,-0.16632112860679626,51.59650421142578,0.011747744865715504
4375062.728,1491,1481,634014193,218.9,103149045,0.03668021410703659,-0.15778495371341705,51.64289855957031,0.005524183623492718
4375162.728,1491,1481,634014193,218.9,103149045,0.011783256195485592,-0.16078698635101318,51.70207595825195,0.005042422562837601
4375262.728,1491,1481,634014193,218.91,103149045,0.012468246743083,-0.1644417643547058,51.77622985839844,0.010082944296300411
4375362.728,1491,1481,634014193,218.91,103149045,0.02691689319908619,-0.16884617507457733,51.84747314453125,0.013916010037064552
4375462.728,1491,1481,634014194,218.93,103149044,0.04199203848838806,-0.15816722810268402,51.90009689331055,0.012811746448278427
4375562.728,1491,1481,634014194,218.93,103149044,0.039028603583574295,-0.1606946438550949,51.94534683227539,0.009076532907783985
4375662.728,1491,1481,634014194,218.94,103149044,0.03582034260034561,-0.1663776934146881,51.990081787109375,0.005181359592825174
4375762.728,1491,1481,634014194,218.94,103149044,0.02989630214869976,-0.17456957697868347,52.02646255493164,0.0029366298113018274
4375862.728,1491,1481,634014194,218.96,103149043,0.019779721274971962,-0.16133758425712585,52.059452056884766,0.00388319487683475
4375962.728,1491,1481,634014194,218.96,103149043,0.027313727885484695,-0.16247832775115967,52.10163116455078,0.006620426662266254
4376062.728,1491,1481,634014194,218.97,103149042,0.027890164405107498,-0.14496451616287231,52.15208053588867,0.007394571788609028
4376162.728,1491,1481,634014194,218.97,103149042,0.027412407100200653,-0.1544349193572998,52.21464920043945,0.007033881265670061
4376262.728,1491,1481,634014194,218.99,103149042,0.032019030302762985,-0.1715351939201355,52.24716567993164,0.005598848219960928
4376362.728,1491,1481,634014194,218.99,103149042,0.043606825172901154,-0.1807907223701477,52.244728088378906,0.0019001910695806146
4376462.728,1491,1481,634014194,219,103149042,0.029288848862051964,-0.15324562788009644,52.24504470825195,-0.0015057934215292335
4376562.728,1491,1481,634014194,219,103149042,0.017797650769352913,-0.1492706537246704,52.27213668823242,0.00018089009972754866
4376662.728,1491,1481,634014194,219.02,103149042,0.027025073766708374,-0.17177125811576843,52.32081604003906,0.004737294279038906
4376762.728,1491,1481,634014194,219.02,103149042,0.038570888340473175,-0.16901426017284393,52.37181091308594,0.005583391059190035
4376862.728,1491,1481,634014194,219.03,103149042,0.03726950287818909,-0.1498410403728485,52.387027740478516,0.0032478640787303448
4376962.728,1491,1481,634014194,219.03,103149042,0.03235074505209923,-0.15576805174350739,52.379722595214844,-0.0001955437328433618
4377062.728,1491,1481,634014195,219.04,103149041,0.035637836903333664,-0.1599784791469574,52.39912414550781,-0.0029407101683318615
4377162.728,1491,1481,634014195,219.04,103149041,0.015388861298561096,-0.16275550425052643,52.420894622802734,-0.003142057918012142
4377262.728,1491,1481,634014194,219.05,103149042,0.024759169667959213,-0.16522929072380066,52.45662307739258,0.00011117582471342757
4377362.728,1491,1481,634014194,219.05,103149042,0.03749004006385803,-0.17195379734039307,52.479644775390625,0.00266841147094965
4377462.728,1491,1481,634014194,219.07,103149042,0.03659697622060776,-0.15827253460884094,52.477386474609375,0.0011641989694908261
4377562.728,1491,1481,634014194,219.07,103149042,0.03404439240694046,-0.15161600708961487,52.48086166381836,-0.0014882941031828523
4377662.728,1491,1481,634014195,219.09,103149042,0.029053296893835068,-0.155905619263649,52.47265625,-0.00244612037204206
4377762.728,1491,1481,634014195,219.09,103149042,0.040894702076911926,-0.17774838209152222,52.425296783447266,-0.003031045664101839
4377862.728,1491,1481,634014195,219.1,103149042,0.029981642961502075,-0.1704108566045761,52.38962173461914,-0.004521695896983147
4377962.728,1491,1481,634014195,219.1,103149042,0.012952529825270176,-0.16041037440299988,52.37876892089844,-0.004220724571496248
4378062.728,1491,1481,634014196,219.12,103149042,0.018534282222390175,-0.14999207854270935,52.36948776245117,-0.0006488322978839278
4378162.728,1491,1481,634014196,219.12,103149042,0.04036286100745201,-0.1585550606250763,52.36488723754883,0.0013725204626098275
4378262.728,1491,1481,634014195,219.13,103149042,0.05826793611049652,-0.16989338397979736,52.34440612792969,-0.0016561791999265552
4378362.728,1491,1481,634014195,219.13,103149042,0.03926657885313034,-0.16049857437610626,52.290653228759766,-0.007066797930747271
4378462.728,1491,1481,634014196,219.14,103149042,0.01944155991077423,-0.1556209921836853,52.25625228881836,-0.008380190469324589
4378562.728,1491,1481,634014196,219.14,103149042,0.02003907412290573,-0.16319522261619568,52.25518035888672,-0.004500161856412888
4378662.728,1491,1481,634014195,219.16,103149042,0.02355988696217537,-0.17594625055789948,52.263790130615234,-0.001084336545318365
4378762.728,1491,1481,634014195,219.16,103149042,0.031606778502464294,-0.16542714834213257,52.262046813964844,-0.0010886030504480004
4378862.728,1491,1481,634014195,219.17,103149042,0.03376905247569084,-0.15035361051559448,52.23273849487305,-0.0031361100263893604
4378962.728,1491,1481,634014195,219.17,103149042,0.03433109074831009,-0.14682720601558685,52.20064926147461,-0.006270525045692921
4379062.728,1491,1481,634014196,219.17,103149043,0.026187261566519737,-0.1644081324338913,52.17032241821289,-0.007341348100453615
4379162.728,1491,1481,634014196,219.17,103149043,0.026623886078596115,-0.16708500683307648,52.16416549682617,-0.006243610288947821
4379262.728,1491,1481,634014195,219.18,103149043,0.023807017132639885,-0.179634228348732,52.16123580932617,-0.004595293663442135
4379362.728,1491,1481,634014195,219.18,103149043,0.032371215522289276,-0.16341818869113922,52.13368225097656,-0.0041535091586411
4379462.728,1491,1481,634014195,219.19,103149043,0.03237367421388626,-0.15367849171161652,52.126197814941406,-0.003596592927351594
4379562.728,1491,1481,634014195,219.19,103149043,0.032623596489429474,-0.15423792600631714,52.101890563964844,-0.0036769534926861525
4379662.728,1491,1481,634014195,219.2,103149043,0.0430234894156456,-0.16774094104766846,52.04265213012695,-0.005837520584464073
4379762.728,1491,1481,634014195,219.2,103149043,0.03297876939177513,-0.17592322826385498,51.97468948364258,-0.008874407038092613
4379862.728,1491,1481,634014195,219.22,103149044,0.020160481333732605,-0.16531282663345337,51.92728805541992,-0.009032695554196835
4379962.728,1500,1481,634014195,219.22,103149044,0.016321033239364624,-0.16049152612686157,51.91132736206055,-0.005884009879082441
4380062.728,1895,1481,634014195,219.22,103149044,0.0588645376265049,-0.0602012574672699,52.07874298095703,0.002083537634462118
4380162.728,1477,1481,634014195,219.22,103149044,-0.09064386785030365,-0.19397114217281342,52.25447463989258,0.035141777247190475
4380262.728,1486,1481,634014194,219.23,103149044,0.1846550703048706,-0.17387670278549194,52.36376190185547,0.027239222079515457
4380362.728,1483,1481,634014194,219.23,103149044,-0.010128937661647797,-0.05448739975690842,52.47621154785156,0.017360571771860123
4380462.728,1484,1481,634014195,219.24,103149045,0.056369464844465256,-0.21639235317707062,52.612709045410156,0.018979676067829132
4380562.728,1901,1481,634014195,219.24,103149045,-0.05052918195724487,-0.0893782302737236,52.955345153808594,0.02901528589427471
4380662.728,1482,1481,634014194,219.26,103149044,0.11654375493526459,-0.0405728779733181,53.40737533569336,0.06828008592128754
4380762.728,1482,1481,634014194,219.26,103149044,0.05030376836657524,-0.18928205966949463,53.77513885498047,0.0778505727648735
4380862.728,1630,1481,634014194,219.27,103149045,0.1293140947818756,-0.15991933643817902,54.0982780456543,0.06338128447532654
4380962.728,1630,1481,634014194,219.27,103149045,0.029737617820501328,-0.09080784022808075,54.450801849365234,0.054394107311964035
4381062.728,1492,1481,634014194,219.27,103149045,0.011635538190603256,-0.15695247054100037,54.95768737792969,0.06892096251249313
4381162.728,1492,1481,634014194,219.27,103149045,0.02022198587656021,-0.22186501324176788,55.44435119628906,0.09092991799116135
4381262.728,1492,1481,634014194,219.29,103149045,0.05254622921347618,-0.12649306654930115,55.92298126220703,0.08586578816175461
4381362.728,1488,1481,634014194,219.29,103149045,0.02971743978559971,-0.16193751990795135,56.409156799316406,0.08179515600204468
4381462.728,1661,1481,634014195,219.3,103149045,0.029322264716029167,-0.19257865846157074,56.90199279785156,0.08307844400405884
4381562.728,1488,1481,634014195,219.3,103149045,0.07087473571300507,-0.07784018665552139,57.50208282470703,0.09144972264766693
4381662.728,1491,1481,634014196,219.32,103149044,0.04679495468735695,-0.21209152042865753,58.004966735839844,0.09971781075000763
4381762.728,1491,1481,634014196,219.32,103149044,0.09326399862766266,-0.16710063815116882,58.480247497558594,0.08472464233636856
4381862.728,1491,1481,634014197,219.33,103149043,0.003348640399053693,-0.0911872386932373,58.99910354614258,0.08307868987321854
4381962.728,1491,1481,634014197,219.33,103149043,0.033694446086883545,-0.1886942982673645,59.55516052246094,0.09238317608833313
4382062.728,1491,1481,634014198,219.34,103149041,0.015282338485121727,-0.18587546050548553,60.07553482055664,0.0967789888381958
4382162.728,1491,1481,634014198,219.34,103149041,0.0814812034368515,-0.1729096919298172,60.54429626464844,0.0899939090013504
4382262.728,1491,1481,634014198,219.36,103149040,0.01272843312472105,-0.18367606401443481,60.97233581542969,0.078839510679245
4382362.728,1489,1481,634014198,219.36,103149040,0.04205089807510376,-0.16306781768798828,61.391029357910156,0.07286673784255981
4382462.728,1469,1481,634014199,219.38,103149040,0.022634517401456833,-0.13313540816307068,61.805389404296875,0.07277324050664902
4382562.728,1470,1481,634014199,219.38,103149040,0.02692030742764473,-0.18765684962272644,62.188446044921875,0.07206836342811584
4382662.728,1477,1481,634014199,219.38,103149039,0.016709361225366592,-0.1656043827533722,62.554405212402344,0.06702680885791779
4382762.728,1478,1481,634014199,219.38,103149039,0.03248359262943268,-0.15605175495147705,62.938961029052734,0.06704238057136536
4382862.728,1478,1481,634014201,219.4,103149039,0.012826044112443924,-0.16645175218582153,63.33637619018555,0.07019177079200745
4382962.728,1479,1481,634014201,219.4,103149039,0.07063006609678268,-0.17194131016731262,63.67607498168945,0.0684928372502327
4383062.728,1479,1481,634014201,219.41,103149038,0.05864594876766205,-0.1800841987133026,63.98207473754883,0.05916471779346466
4383162.728,1479,1481,634014201,219.41,103149038,0.043250083923339844,-0.1745396852493286,64.30211639404297,0.04951183497905731
4383262.728,1479,1481,634014202,219.42,103149038,-0.005371758248656988,-0.15410563349723816,64.63529205322266,0.04998474940657616
4383362.728,1479,1481,634014202,219.42,103149038,0.018062110990285873,-0.14684079587459564,64.988525390625,0.05869973078370094
4383462.728,1479,1481,634014203,219.43,103149037,0.04123065620660782,-0.17193126678466797,65.34321594238281,0.06365378946065903
4383562.728,1479,1481,634014203,219.43,103149037,0.06822697818279266,-0.1764601171016693,65.63524627685547,0.05716059356927872
4383662.728,1479,1481,634014203,219.44,103149037,0.045096807181835175,-0.16465766727924347,65.89282989501953,0.045297108590602875
4383762.728,1479,1481,634014203,219.44,103149037,0.010340938344597816,-0.16013190150260925,66.1618423461914,0.04005809128284454
4383862.728,1479,1481,634014204,219.44,103149037,-0.0018554811831563711,-0.14924153685569763,66.47525787353516,0.04498545825481415
4383962.728,1479,1481,634014204,219.44,103149037,0.03899116814136505,-0.17798039317131042,66.78742218017578,0.05072605982422829
4384062.728,1479,1481,634014205,219.45,103149036,0.057893045246601105,-0.193692147731781,67.06014251708984,0.04842614382505417
4384162.728,1479,1481,634014205,219.45,103149036,0.04277893528342247,-0.16613133251667023,67.31133270263672,0.04213753342628479
4384262.728,1479,1481,634014206,219.46,103149035,0.025591757148504257,-0.13943813741207123,67.5500717163086,0.03934578225016594
4384362.728,1479,1486,634014206,219.46,103149035,0.022756969556212425,-0.1504555493593216,67.80693054199219,0.04054635390639305
4384462.728,1479,1488,634014206,219.46,103149035,0.04732076823711395,-0.1746603399515152,68.02906036376953,0.040687426924705505
4384562.728,1479,1489,634014206,219.46,103149035,0.050118338316679,-0.18862256407737732,68.20294952392578,0.035999223589897156
4384662.728,1479,1489,634014207,219.46,103149034,0.022809259593486786,-0.17624984681606293,68.40959167480469,0.03296488896012306
4384762.728,1479,1489,634014207,219.46,103149034,0.009616518393158913,-0.1451270431280136,68.67193603515625,0.03523790091276169
4384862.728,1479,1489,634014207,219.46,103149033,0.0330963134765625,-0.14785370230674744,68.93586730957031,0.03918507695198059
4384962.728,1479,1489,634014207,219.46,103149033,0.05116521939635277,-0.1704982966184616,69.14457702636719,0.037440430372953415
4385062.728,1479,1489,634014207,219.46,103149032,0.05015821009874344,-0.16993877291679382,69.29598999023438,0.030103549361228943
4385162.728,1479,1489,634014207,219.46,103149032,0.02744816243648529,-0.16786399483680725,69.44935607910156,0.02462604083120823
4385262.728,1479,1489,634014208,219.46,103149031,0.0010443221544846892,-0.15741080045700073,69.63235473632812,0.02699667029082775
4385362.728,1479,1489,634014208,219.46,103149031,0.021622437983751297,-0.16285037994384766,69.84329986572266,0.033407825976610184
4385462.728,1479,1489,634014208,219.46,103149029,0.05010960251092911,-0.17460045218467712,70.03141784667969,0.03374539688229561
4385562.728,1479,1489,634014208,219.46,103149029,0.043819960206747055,-0.16358637809753418,70.18294525146484,0.026931099593639374
4385662.728,1479,1489,634014209,219.45,103149028,0.022062519565224648,-0.14629516005516052,70.34013366699219,0.022448129951953888
4385762.728,1479,1489,634014209,219.45,103149028,0.023677071556448936,-0.14466947317123413,70.50335693359375,0.024354014545679092
4385862.728,1479,1489,634014210,219.45,103149027,0.03893177956342697,-0.16908922791481018,70.66738891601562,0.026516694575548172
4385962.728,1479,1489,634014210,219.45,103149027,0.044624246656894684,-0.1799289882183075,70.82241821289062,0.024345893412828445
4386062.728,1479,1489,634014210,219.43,103149026,0.030071139335632324,-0.17378339171409607,70.95076751708984,0.021019842475652695
4386162.728,1479,1489,634014210,219.43,103149026,0.014700066298246384,-0.14764449000358582,71.10215759277344,0.021363765001296997
4386262.728,1479,1489,634014210,219.43,103149025,0.028366174548864365,-0.140354186296463,71.268310546875,0.024442654103040695
4386362.728,1479,1489,634014210,219.43,103149025,0.04609916731715202,-0.1676969677209854,71.40414428710938,0.024318290874361992
4386462.728,1479,1489,634014211,219.41,103149023,0.05393872410058975,-0.17625366151332855,71.50484466552734,0.019179653376340866
4386562.728,1479,1486,634014211,219.41,103149023,0.02561883255839348,-0.16873636841773987,71.605224609375,0.014322291128337383
4386662.728,1479,1486,634014211,219.4,103149023,0.011127704754471779,-0.15285184979438782,71.74618530273438,0.015269627794623375
4386762.728,1479,1476,634014211,219.4,103149023,0.015282574109733105,-0.15401038527488708,71.89614868164062,0.021314295008778572
4386862.728,1479,1476,634014211,219.39,103149022,0.04594041407108307,-0.16803468763828278,72.01625061035156,0.02363746240735054
4386962.728,1479,1475,634014211,219.39,103149022,0.057247091084718704,-0.17138229310512543,72.08601379394531,0.01854332536458969
4387062.728,1479,1474,634014211,219.38,103149022,0.033587273210287094,-0.16021057963371277,72.13400268554688,0.011736158281564713
4387162.728,1479,1474,634014211,219.38,103149022,0.009673197753727436,-0.14866407215595245,72.19340515136719,0.011544053442776203
4387262.728,1479,1473,634014212,219.36,103149021,0.014170768670737743,-0.15372925996780396,72.2899398803711,0.016494158655405045
4387362.728,1479,1472,634014212,219.36,103149021,0.044783156365156174,-0.16479521989822388,72.39068603515625,0.019038675352931023
4387462.728,1479,1472,634014212,219.36,103149020,0.048474058508872986,-0.17254683375358582,72.4869155883789,0.015587115660309792
4387562.728,1479,1472,634014212,219.36,103149020,0.031216485425829887,-0.16395705938339233,72.58939361572266,0.01158660463988781
4387662.728,1479,1472,634014212,219.35,103149019,0.02096714824438095,-0.14971327781677246,72.68635559082031,0.012025084346532822
4387762.728,1479,1474,634014212,219.35,103149019,0.029395218938589096,-0.15819403529167175,72.77440643310547,0.014890470542013645
4387862.728,1479,1474,634014212,219.34,103149017,0.03885645419359207,-0.17458665370941162,72.85462188720703,0.013807364739477634
4387962.728,1479,1474,634014212,219.34,103149017,0.039624545723199844,-0.18866612017154694,72.89594268798828,0.009563129395246506
4388062.728,1479,1486,634014212,219.33,103149016,0.01922013983130455,-0.16579340398311615,72.97710418701172,0.008311275392770767
4388162.728,1479,1486,634014212,219.33,103149016,0.015386292710900307,-0.1482013612985611,73.10621643066406,0.012143890373408794
4388262.728,1479,1491,634014213,219.32,103149015,0.029623892158269882,-0.15815472602844238,73.20384216308594,0.015303831547498703
4388362.728,1479,1492,634014213,219.32,103149015,0.05016347020864487,-0.16604994237422943,73.25099182128906,0.01201668381690979
4388462.728,1479,1510,634014214,219.31,103149015,0.03470241278409958,-0.1628866195678711,73.28863525390625,0.006302041932940483
4388562.728,1479,1510,634014214,219.31,103149015,0.014046205207705498,-0.1517583727836609,73.3305435180664,0.004588539712131023
4388662.728,1479,1519,634014214,219.31,103149013,0.01687726564705372,-0.16236495971679688,73.39136505126953,0.009472094476222992
4388762.728,1479,1579,634014214,219.31,103149013,0.04940512403845787,-0.1758500337600708,73.46137237548828,0.01337616890668869
4388862.728,1479,1608,634014215,219.31,103149013,0.5176393389701843,-0.17767086625099182,73.50569152832031,0.010722527280449867
4388962.728,1479,1616,634014215,219.31,103149013,0.6086143851280212,-0.15020689368247986,73.53733825683594,0.00552818737924099
4389062.728,1479,1618,634014217,219.31,103149018,0.8873715400695801,-0.13354358077049255,73.58024597167969,0.005562304984778166
4389162.728,1479,1619,634014217,219.31,103149018,1.0631968975067139,-0.13099272549152374,73.62479400634766,0.007530139293521643
4389262.728,1479,1620,634014219,219.3,103149028,1.239821195602417,-0.17597709596157074,73.65533447265625,0.006227487698197365
4389362.728,1479,1620,634014219,219.3,103149028,1.2369580268859863,-0.16932758688926697,73.66976928710938,0.003989985212683678
4389462.728,1479,1620,634014221,219.3,103149046,1.1132259368896484,-0.16283154487609863,73.68595886230469,0.002238694578409195
4389562.728,1479,1620,634014221,219.3,103149046,1.0197019577026367,-0.17079147696495056,73.71956634521484,0.0019468876998871565
4389662.728,1479,1620,634014224,219.3,103149069,0.9355549812316895,-0.13472941517829895,73.73290252685547,0.0009329856839030981
4389762.728,1479,1620,634014224,219.3,103149069,0.885124921798706,-0.151668980717659,73.75008392333984,-0.0021804175339639187
4389862.728,1479,1620,634014228,219.29,103149096,0.8328229188919067,-0.18358317017555237,73.74359130859375,-0.003475925652310252
4389962.728,1479,1620,634014228,219.29,103149096,0.8400838375091553,-0.1759413778781891,73.70226287841797,-0.004776109475642443
4390062.728,1479,1621,634014232,219.29,103149127,0.8169351816177368,-0.18868358433246613,73.64983367919922,-0.009564639069139957
4390162.728,1479,1624,634014232,219.29,103149127,0.8215399980545044,-0.19579480588436127,73.58187866210938,-0.014025390148162842
4390262.728,1479,1626,634014236,219.29,103149164,0.7531800866127014,-0.16976353526115417,73.5254898071289,-0.014356758445501328
4390362.728,1479,1628,634014236,219.29,103149164,0.7206981778144836,-0.15116508305072784,73.51969146728516,-0.010421283543109894
4390462.728,1479,1632,634014241,219.29,103149203,0.749072253704071,-0.17273028194904327,73.50841522216797,-0.004742518998682499
4390562.728,1479,1632,634014241,219.29,103149203,0.7290341854095459,-0.13788829743862152,73.49522399902344,-0.0029066838324069977
4390662.728,1479,1633,634014246,219.3,103149246,0.7114422917366028,-0.14567703008651733,73.46227264404297,-0.0022883627098053694
4390762.728,1479,1634,634014246,219.3,103149246,0.6786896586418152,-0.17880572378635406,73.43456268310547,-0.0013468458782881498
4390862.728,1479,1634,634014251,219.3,103149291,0.7011208534240723,-0.15584784746170044,73.42265319824219,-0.0012903523165732622
4390962.728,1479,1634,634014251,219.3,103149291,0.6447610855102539,-0.16186320781707764,73.38506317138672,-0.0036908916663378477
4391062.728,1479,1634,634014256,219.29,103149339,0.606328547000885,-0.19061453640460968,73.33477783203125,-0.0062017301097512245
4391162.728,1479,1634,634014256,219.29,103149339,0.5963390469551086,-0.1602816879749298,73.27401733398438,-0.009184477850794792
4391262.728,1551,1634,634014262,219.29,103149387,0.5544202923774719,-0.16584563255310059,73.23857116699219,-0.011976486071944237
4391362.728,1620,1634,634014262,219.29,103149387,0.4498290419578552,-0.020151767879724503,73.59172058105469,0.0007211077609099448
4391462.728,1651,1634,634014267,219.28,103149437,0.5650617480278015,0.12574151158332825,74.33463287353516,0.06894190609455109
4391562.728,1651,1634,634014267,219.28,103149437,0.9058545827865601,0.1784425526857376,75.2804183959961,0.13913175463676453
4391662.728,1655,1634,634014271,219.28,103149490,0.9037914872169495,0.29465407133102417,76.34841918945312,0.17901618778705597
4391762.728,1655,1634,634014271,219.28,103149490,1.0287842750549316,0.25652655959129333,77.44226837158203,0.19330479204654694
4391862.728,1655,1634,634014275,219.28,103149547,1.0220752954483032,0.19594216346740723,78.44671630859375,0.1925991028547287
4391962.728,1655,1634,634014275,219.28,103149547,0.9689260721206665,0.1729702353477478,79.34911346435547,0.17834511399269104
4392062.728,1656,1634,634014276,219.28,103149608,0.931458592414856,0.031928882002830505,80.11327362060547,0.15564538538455963
4392162.728,1656,1634,634014276,219.28,103149608,0.9128337502479553,0.01115157175809145,80.78553009033203,0.13532300293445587
4392262.728,1656,1634,634014279,219.29,103149670,0.8938909769058228,0.03878660500049591,81.39925384521484,0.11920535564422607
4392362.728,1656,1634,634014279,219.29,103149670,0.9161421060562134,-0.019354980438947678,81.94995880126953,0.10701481252908707
4392462.728,1693,1634,634014279,219.28,103149733,0.8945671319961548,-0.0004901672946289182,82.49504089355469,0.09638966619968414
4392562.728,1741,1634,634014279,219.28,103149733,1.239882230758667,0.07392558455467224,83.2753677368164,0.10194164514541626
4392662.728,1754,1634,634014280,219.29,103149799,1.4253313541412354,0.15506678819656372,84.19847106933594,0.13955935835838318
4392762.728,1755,1634,634014280,219.29,103149799,1.5527758598327637,0.20457683503627777,85.15826416015625,0.17044992744922638
4392862.728,1762,1634,634014280,219.3,103149868,1.5749242305755615,0.22157324850559235,86.14439392089844,0.1815803498029709
4392962.728,1781,1634,634014280,219.3,103149868,1.7177287340164185,0.15942835807800293,87.17749786376953,0.18562927842140198
4393062.728,1783,1634,634014278,219.29,103149942,1.6611768007278442,0.21788711845874786,88.22683715820312,0.18650312721729279
4393162.728,1784,1634,634014278,219.29,103149942,1.5585100650787354,0.18716183304786682,89.27465057373047,0.18858158588409424
4393262.728,1784,1634,634014275,219.3,103150018,1.5374069213867188,0.13955238461494446,90.34255981445312,0.18814942240715027
4393362.728,1784,1634,634014275,219.3,103150018,1.5187582969665527,0.2066957652568817,91.382080078125,0.1874641478061676
4393462.728,1798,1634,634014270,219.29,103150095,1.4318134784698486,0.20773065090179443,92.43040466308594,0.18449458479881287
4393562.728,1798,1634,634014270,219.29,103150095,1.4848779439926147,0.179829940199852,93.51318359375,0.18340498208999634
4393662.728,1806,1634,634014265,219.3,103150173,1.4344456195831299,0.234542578458786,94.62596893310547,0.187368243932724
4393762.728,1810,1628,634014265,219.3,103150173,1.4095853567123413,0.2559712529182434,95.74390411376953,0.194766566157341
4393862.728,1811,1582,634014258,219.29,103150251,1.2954580783843994,0.18292705714702606,96.90032958984375,0.19807001948356628
4393962.728,1811,1576,634014258,219.29,103150251,0.9101664423942566,0.23050984740257263,98.00891876220703,0.19784006476402283
4394062.728,1811,1576,634014250,219.28,103150326,0.900696873664856,0.2023715376853943,99.06990051269531,0.1893938034772873
4394162.728,1811,1576,634014250,219.28,103150326,0.8023597598075867,0.07206333428621292,100.13195037841797,0.1794852316379547
4394262.728,1811,1576,634014242,219.3,103150398,0.8493282794952393,0.24053585529327393,101.2225112915039,0.17588746547698975
4394362.728,1811,1576,634014242,219.3,103150398,0.7954270839691162,0.1372186243534088,102.33209991455078,0.1781773418188095
4394462.728,1811,1576,634014232,219.36,103150464,0.9421602487564087,0.16185830533504486,103.44397735595703,0.18421077728271484
4394562.728,1811,1576,634014232,219.36,103150464,0.9345716238021851,0.3944348692893982,104.59002685546875,0.19240061938762665
4394662.728,1811,1576,634014220,219.37,103150531,1.060174822807312,0.20242667198181152,105.71749114990234,0.19329750537872314
4394762.728,1811,1576,634014220,219.37,103150531,1.0889168977737427,0.12084358185529709,106.78480529785156,0.18762680888175964
4394862.728,1811,1576,634014207,219.37,103150597,1.1167399883270264,0.21983365714550018,107.80763244628906,0.17881762981414795
4394962.728,1811,1576,634014207,219.37,103150597,1.0183806419372559,0.15144318342208862,108.92697143554688,0.17345573008060455
4395062.728,1811,1576,634014194,219.36,103150658,0.772283136844635,0.1701732873916626,110.17723846435547,0.18914468586444855
4395162.728,1811,1576,634014194,219.36,103150658,0.7897008061408997,0.2776489555835724,111.55044555664062,0.21224182844161987
4395262.728,1811,1576,634014180,219.36,103150718,0.5737264156341553,0.3538345694541931,112.98739624023438,0.22470968961715698
4395362.728,1811,1576,634014180,219.36,103150718,0.3345707952976227,0.35471731424331665,114.57518005371094,0.24116794764995575
4395462.728,1811,1576,634014166,219.38,103150770,-0.025708334520459175,0.46581193804740906,116.29734802246094,0.27072757482528687
4395562.728,1811,1576,634014166,219.38,103150770,0.4643905758857727,0.33434733748435974,117.87911224365234,0.29232048988342285
4395662.728,1811,1576,634014150,219.38,103150816,0.24892951548099518,0.4736415147781372,119.29857635498047,0.2628366947174072
4395762.728,1811,1576,634014150,219.38,103150816,-0.3954755365848541,0.396016001701355,120.94170379638672,0.24871642887592316
4395862.728,1811,1576,634014137,219.4,103150853,-0.039946213364601135,0.1949189007282257,122.73107147216797,0.2831299304962158
4395962.728,1811,1576,634014137,219.4,103150853,0.03575823828577995,0.2588001787662506,124.80953979492188,0.30967533588409424
4396062.728,1811,1576,634014124,219.41,103150884,-0.5470564365386963,0.2851297855377197,127.27587127685547,0.3511059880256653
4396162.728,1811,1576,634014124,219.41,103150884,-0.5956249237060547,0.20048707723617554,130.0886688232422,0.42239975929260254
4396262.728,1811,1576,634014112,219.43,103150906,-0.09509480744600296,0.4412088990211487,133.1358184814453,0.48029571771621704
4396362.728,1811,1576,634014112,219.43,103150906,-0.11513106524944305,0.5710446238517761,136.29244995117188,0.5123592615127563
4396462.728,1811,1576,634014099,219.44,103150923,-0.11911910027265549,0.2885796129703522,139.7342987060547,0.5338168144226074
4396562.728,1811,1576,634014099,219.44,103150923,0.10170983523130417,0.510714590549469,143.50485229492188,0.591174304485321
4396662.728,1811,1576,634014085,219.46,103150935,-0.3208754360675812,0.412862628698349,147.6219940185547,0.6349692344665527
4396762.728,1811,1576,634014085,219.46,103150935,-0.14143706858158112,0.45919033885002136,152.13385009765625,0.6962091326713562
4396862.728,1811,1576,634014072,219.47,103150941,-0.4340824782848358,0.593025803565979,156.8739471435547,0.7593536376953125
4396962.728,1811,1576,634014072,219.47,103150941,-0.11854372173547745,0.6395217180252075,161.7478790283203,0.7970646023750305
4397062.728,1811,1576,634014059,219.47,103150943,-0.30792558193206787,0.6436656713485718,166.79823303222656,0.8208415508270264
4397162.728,1811,1576,634014059,219.47,103150943,-0.010186262428760529,0.6940593719482422,171.85166931152344,0.8440593481063843
4397262.728,1811,1576,634014048,219.48,103150940,-0.06300178915262222,0.5692027807235718,176.9269256591797,0.8480817079544067
4397362.728,1811,1576,634014048,219.48,103150940,0.12058911472558975,0.42915481328964233,181.9298095703125,0.8539189100265503
4397462.728,1811,1576,634014037,219.49,103150932,0.29693686962127686,0.32195916771888733,186.87081909179688,0.8443628549575806
4397562.728,1811,1576,634014037,219.49,103150932,0.35985198616981506,0.3206799030303955,191.70567321777344,0.8200260400772095
4397662.728,1811,1576,634014025,219.47,103150922,0.3024264872074127,0.25892317295074463,196.47853088378906,0.8029248118400574
4397762.728,1811,1576,634014025,219.47,103150922,0.0757831409573555,0.13588573038578033,201.21253967285156,0.7907354831695557
4397862.728,1811,1576,634014016,219.49,103150905,0.008105799555778503,0.2752430737018585,205.97894287109375,0.7960226535797119
4397962.728,1811,1576,634014016,219.49,103150905,-0.02778896689414978,0.20035047829151154,210.8498077392578,0.8011004328727722
4398062.728,1811,1576,634014008,219.51,103150886,0.0020369170233607292,0.25539126992225647,215.87123107910156,0.8204662203788757
4398162.728,1811,1576,634014008,219.51,103150886,-0.05688830465078354,0.3126346468925476,220.98724365234375,0.8399057984352112
4398262.728,1811,1576,634014001,219.52,103150865,0.033427417278289795,0.428081750869751,226.2762908935547,0.8563334941864014
4398362.728,1811,1576,634014001,219.52,103150865,-0.00951419584453106,0.7036312818527222,231.51101684570312,0.8726226091384888
4398462.728,1811,1576,634013995,219.53,103150840,0.20585530996322632,0.8095171451568604,236.6107940673828,0.8722032308578491
4398562.728,1811,1576,634013995,219.53,103150840,0.0800323560833931,1.0473945140838623,241.68756103515625,0.8551434874534607
4398662.728,1811,1576,634013992,219.5,103150813,0.05795850604772568,1.1747558116912842,246.74267578125,0.8602056503295898
4398762.728,1811,1576,634013992,219.5,103150813,0.04485313966870308,0.9991999268531799,251.58941650390625,0.8636261820793152
4398862.728,1811,1576,634013992,219.44,103150784,0.16650456190109253,0.3405973017215729,256.1241149902344,0.8396698236465454
4398962.728,1811,1576,634013992,219.44,103150784,-0.10346512496471405,-0.48040053248405457,260.3315124511719,0.785277247428894
4399062.728,1811,1576,634013991,219.46,103150757,-0.007952800020575523,-1.0594255924224854,264.4687194824219,0.7282649874687195
4399162.728,1811,1576,634013991,219.46,103150757,-0.12961386144161224,-0.9695818424224854,268.61553955078125,0.6807462573051453
4399262.728,1506,1898,634013991,219.53,103150729,0.29004189372062683,-0.5222039222717285,271.9737243652344,0.6722826957702637
4399362.728,1506,1898,634013991,219.53,103150729,1.4773017168045044,1.1797887086868286,275.2062683105469,0.5523772239685059
4399462.728,1505,1895,634013996,219.48,103150694,1.302659034729004,2.356876850128174,278.37750244140625,0.5396769642829895
4399562.728,1505,1502,634013996,219.48,103150694,1.8042268753051758,-0.45788460969924927,280.3888854980469,0.5510578155517578
4399662.728,1505,1490,634014001,219.46,103150650,1.477542757987976,-0.6289740800857544,281.55316162109375,0.3503386378288269
4399762.728,1505,1489,634014001,219.46,103150650,0.8097355365753174,-0.6414268612861633,282.4638671875,0.1702936589717865
4399862.728,1505,1489,634014006,219.49,103150601,0.49565941095352173,-0.47295457124710083,283.23638916015625,0.138440802693367
4399962.728,1505,1489,634014006,219.49,103150601,0.23494726419448853,-0.1534702181816101,283.5558776855469,0.13679753243923187
4400062.728,1505,1493,634014011,219.48,103150555,-0.3808169662952423,-0.4550779461860657,283.5454406738281,0.06720943003892899
4400162.728,1505,1498,634014011,219.48,103150555,-1.0516397953033447,0.25862210988998413,283.8846130371094,0.0246670451015234
4400262.728,1505,1514,634014016,219.49,103150517,-0.9799051284790039,-0.005076918285340071,284.2191467285156,0.07862530648708344
4400362.728,1505,1680,634014016,219.49,103150517,-0.20610900223255157,-0.03482253476977348,284.01934814453125,0.056607089936733246
4400462.728,1505,1826,634014021,219.49,103150478,0.34946975111961365,-0.41601821780204773,283.646728515625,-0.05114728584885597
4400562.728,1505,1900,634014021,219.49,103150478,1.3375296592712402,-0.48351818323135376,283.68072509765625,-0.07978025823831558
4400662.728,1505,1900,634014025,219.52,103150429,2.8114380836486816,-0.065089151263237,283.9710388183594,-0.00887972116470337
4400762.728,1508,1900,634014025,219.52,103150429,4.05376672744751,0.07948525249958038,283.9698791503906,0.03589805215597153
4400862.728,1508,1900,634014032,219.52,103150359,4.370180606842041,-0.5891312956809998,283.7237243652344,-0.018455101177096367
4400962.728,1509,1900,634014032,219.52,103150359,3.600618362426758,0.05036291480064392,283.83355712890625,-0.049453042447566986
4401062.728,1545,1900,634014042,219.52,103150271,3.7816314697265625,-0.22142061591148376,283.65765380859375,0.007624384481459856
4401162.728,1623,1900,634014042,219.52,103150271,2.5678091049194336,-0.24696479737758636,283.7708740234375,-0.04288885369896889
4401262.728,1675,1892,634014050,219.51,103150178,1.6525797843933105,0.14201471209526062,284.3155212402344,0.02381005883216858
4401362.728,1693,1855,634014050,219.51,103150178,1.6531710624694824,0.007987204939126968,284.93206787109375,0.11037056893110275
4401462.728,1695,1760,634014060,219.5,103150086,1.012606143951416,0.23289795219898224,285.88372802734375,0.12809981405735016
4401562.728,1699,1527,634014060,219.5,103150086,0.6293219327926636,0.3439615070819855,286.9326171875,0.19219794869422913
4401662.728,1727,1499,634014071,219.49,103150001,0.3279794752597809,0.327949583530426,287.93255615234375,0.19707317650318146
4401762.728,1758,1498,634014071,219.49,103150001,-0.11338024586439133,0.27204054594039917,288.77813720703125,0.1748906970024109
4401862.728,1767,1498,634014082,219.49,103149924,-0.25366392731666565,0.29298585653305054,289.4754333496094,0.15522927045822144
4401962.728,1767,1498,634014082,219.49,103149924,-0.2310972660779953,0.20501479506492615,290.1116027832031,0.13225874304771423
4402062.728,1767,1498,634014094,219.48,103149854,-0.06801219284534454,0.07622463256120682,290.8073425292969,0.11661677062511444
4402162.728,1767,1498,634014094,219.48,103149854,0.013758179731667042,-0.029520664364099503,291.51824951171875,0.12009026110172272
4402262.728,1767,1498,634014105,219.48,103149791,0.3361598253250122,0.03489387035369873,292.28631591796875,0.12334604561328888
4402362.728,1767,1498,634014105,219.48,103149791,0.47621798515319824,0.1393204778432846,293.0325622558594,0.12990784645080566
4402462.728,1767,1498,634014117,219.48,103149731,0.3858337104320526,0.19884638488292694,293.8505554199219,0.13499489426612854
4402562.728,1767,1498,634014117,219.48,103149731,0.023253444582223892,0.1363522708415985,294.7955322265625,0.1535613089799881
4402662.728,1767,1498,634014128,219.47,103149679,-0.4435986280441284,0.22385458648204803,295.92205810546875,0.18378277122974396
4402762.728,1767,1498,634014128,219.47,103149679,-0.45592427253723145,0.17930030822753906,297.1837463378906,0.21312862634658813
4402862.728,1767,1498,634014138,219.45,103149638,-1.2210206985473633,0.2044064700603485,298.682373046875,0.23552821576595306
4402962.728,1767,1498,634014138,219.45,103149638,-1.4347033500671387,0.22205869853496552,300.6398620605469,0.27458426356315613
4403062.728,1767,1498,634014146,219.44,103149611,-1.1187465190887451,0.46496471762657166,303.0793762207031,0.35731086134910583
4403162.728,1767,1498,634014146,219.44,103149611,-1.20796799659729,0.3308992385864258,305.9141540527344,0.4462635815143585
4403262.728,1767,1498,634014154,219.44,103149591,-0.8544306755065918,0.36789825558662415,309.00445556640625,0.5148894786834717
4403362.728,1767,1498,634014154,219.44,103149591,-0.9587148427963257,0.5918339490890503,312.4405212402344,0.5622189044952393
4403462.728,1767,1498,634014162,219.44,103149579,-0.2629692852497101,0.3714749217033386,316.17303466796875,0.6212558746337891
4403562.728,1767,1498,634014162,219.44,103149579,-0.5772000551223755,0.44411343336105347,320.30047607421875,0.6666476726531982
4403662.728,1767,1498,634014170,219.45,103149571,-0.7889468669891357,0.5731446743011475,325.02294921875,0.7509164214134216
4403762.728,1767,1498,634014170,219.45,103149571,-0.8333945274353027,0.43323957920074463,330.07977294921875,0.8536413311958313
4403862.728,1767,1498,634014177,219.46,103149567,-0.7375311851501465,0.3135208785533905,335.27764892578125,0.9130306243896484
4403962.728,1767,1498,634014177,219.46,103149567,-0.8033694624900818,0.4594367742538452,340.74188232421875,0.9515536427497864
4404062.728,1767,1498,634014182,219.46,103149569,-0.4824976325035095,0.24247562885284424,346.1578369140625,0.9734410047531128
4404162.728,1767,1498,634014182,219.46,103149569,-0.6318824291229248,-0.08724270015954971,351.54425048828125,0.97940993309021
4404262.728,1767,1498,634014186,219.43,103149574,-0.30840492248535156,0.015297718346118927,356.7603454589844,0.9703291058540344
4404362.728,1767,1498,634014186,219.43,103149574,-0.21850205957889557,-0.23439013957977295,1.7134456634521484,0.9396626353263855
4404462.728,1767,1498,634014188,219.43,103149580,-0.2921597361564636,-0.4470924139022827,6.426524639129639,0.8900610208511353
4404562.728,1767,1498,634014188,219.43,103149580,-0.5112091302871704,-0.2794855833053589,11.175127983093262,0.8598464727401733
4404662.728,1767,1498,634014190,219.43,103149585,-0.5758827328681946,-0.09142813086509705,16.041316986083984,0.863018810749054
4404762.728,1767,1498,634014190,219.43,103149585,-0.7133432626724243,-0.09638739377260208,21.335115432739258,0.9051209688186646
4404862.728,1767,1498,634014189,219.45,103149589,-0.393608421087265,-0.11876245588064194,26.75995635986328,0.961557924747467
4404962.728,1767,1498,634014189,219.45,103149589,-0.4752780795097351,0.0615919753909111,32.25092697143555,0.9980341792106628
4405062.728,1767,1498,634014187,219.45,103149592,-0.2220209538936615,-0.015529211610555649,37.60919189453125,1.0067994594573975
4405162.728,1767,1498,634014187,219.45,103149592,-0.3040822446346283,-0.05911969766020775,42.732208251953125,0.9814953804016113
4405262.728,1767,1498,634014186,219.45,103149591,-0.23263049125671387,0.051366835832595825,47.63063049316406,0.9309650659561157
4405362.728,1767,1498,634014186,219.45,103149591,-0.31682851910591125,0.011183369904756546,52.52263641357422,0.8986800909042358
4405462.728,1767,1498,634014184,219.45,103149592,-0.2479611039161682,-0.09775497764348984,57.54759979248047,0.8982465267181396
4405562.728,1767,1498,634014184,219.45,103149592,-0.2581459879875183,-0.29042181372642517,62.681358337402344,0.9217708706855774
4405662.728,1767,1498,634014182,219.45,103149589,-0.5099225640296936,-0.5410654544830322,67.95591735839844,0.9360551834106445
4405762.728,1767,1498,634014182,219.45,103149589,-0.5572598576545715,-0.6778417825698853,73.27178192138672,0.9509271383285522
4405862.728,1767,1498,634014181,219.47,103149582,-0.5377928018569946,-0.5610838532447815,78.6346435546875,0.9679398536682129
4405962.728,1767,1498,634014181,219.47,103149582,-0.43018853664398193,-0.3939054608345032,83.99596405029297,0.9729387760162354
4406062.728,1767,1498,634014181,219.47,103149575,-0.26624077558517456,-0.13717928528785706,89.37052154541016,0.9750015735626221
4406162.728,1767,1498,634014181,219.47,103149575,-0.09904506802558899,-0.097073495388031,94.73094177246094,0.9758416414260864
4406262.728,1767,1498,634014180,219.47,103149566,-0.11486414074897766,-0.18420323729515076,100.09407043457031,0.9644142389297485
4406362.728,1767,1498,634014180,219.47,103149566,-0.23025335371494293,-0.27337417006492615,105.3071060180664,0.9488619565963745
4406462.728,1767,1498,634014182,219.48,103149555,-0.14723488688468933,-0.48400256037712097,110.52801513671875,0.9348891377449036
4406562.728,1767,1498,634014182,219.48,103149555,-0.23164111375808716,-0.49584877490997314,115.8949203491211,0.9313825368881226
4406662.728,1767,1498,634014184,219.49,103149545,-0.2266002595424652,-0.6035410165786743,121.33035278320312,0.9418082237243652
4406762.728,1767,1498,634014184,219.49,103149545,-0.30455416440963745,-0.5674719214439392,126.72691345214844,0.9418981671333313
4406862.728,1767,1498,634014189,219.5,103149540,-0.4002537131309509,-0.33496591448783875,132.02085876464844,0.9158211946487427
4406962.728,1767,1498,634014189,219.5,103149540,-0.4937271475791931,-0.09840155392885208,137.04774475097656,0.8738399147987366
4407062.728,1767,1498,634014192,219.5,103149532,-0.34801042079925537,-0.0043574548326432705,141.8627166748047,0.843228816986084
4407162.728,1767,1498,634014192,219.5,103149532,-0.2091042697429657,0.07032705843448639,146.7556610107422,0.8203661441802979
4407262.728,1476,1492,634014196,219.5,103149527,0.7125389575958252,-0.0588311105966568,151.0677490234375,0.8355446457862854
4407362.728,1476,1492,634014196,219.5,103149527,0.6449249982833862,-0.676065981388092,154.21739196777344,0.7136586904525757
4407462.728,1476,1492,634014200,219.51,103149526,0.4336950182914734,-0.9051262140274048,156.85635375976562,0.5310776829719543
4407562.728,1476,1492,634014200,219.51,103149526,-0.05789262428879738,-0.44379010796546936,159.266845703125,0.4382120370864868
4407662.728,1476,1492,634014202,219.52,103149528,-0.13734422624111176,-0.4909307658672333,161.5439910888672,0.3993730843067169
4407762.728,1476,1492,634014202,219.52,103149528,-0.12075714766979218,-0.4130883514881134,163.633056640625,0.36900484561920166
4407862.728,1476,1492,634014205,219.53,103149530,0.13701874017715454,0.004137546755373478,165.33799743652344,0.32319653034210205
4407962.728,1476,1492,634014205,219.53,103149530,0.3579525649547577,0.19733841717243195,166.91697692871094,0.25989803671836853
4408062.728,1476,1492,634014206,219.53,103149532,0.21989805996418,0.0646856278181076,166.91697692871094,0.20553085207939148
4408162.728,1476,1492,634014206,219.53,103149532,0.3771911859512329,-0.14174513518810272,167.98382568359375,0.16231442987918854
4408262.728,1476,1492,634014206,219.53,103149535,0.13712762296199799,-0.22652363777160645,168.714599609375,0.11720428615808487
4408362.728,1476,1492,634014206,219.53,103149535,0.02295011281967163,-0.3867014944553375,169.2908172607422,0.09219223260879517
4408462.728,1476,1492,634014207,219.53,103149539,-0.21600645780563354,-0.28593122959136963,169.97650146484375,0.09750774502754211
4408562.728,1476,1492,634014207,219.53,103149539,-0.13343439996242523,-0.14950504899024963,170.8164825439453,0.12195003032684326
4408662.728,1476,1492,634014208,219.53,103149541,-0.10124018788337708,-0.014994043856859207,171.7412109375,0.1361362189054489
4408762.728,1476,1492,634014208,219.53,103149541,0.153577521443367,0.019686749204993248,172.60450744628906,0.12402544170618057
4408862.728,1476,1492,634014209,219.54,103149544,0.24161937832832336,0.06854177266359329,173.26084899902344,0.09019062668085098
4408962.728,1476,1492,634014209,219.54,103149544,0.2581792175769806,-0.15287360548973083,173.6718292236328,0.05591829493641853
4409062.728,1476,1492,634014208,219.54,103149548,0.08624047040939331,-0.2737405300140381,173.94522094726562,0.0360395684838295
4409162.728,1476,1492,634014208,219.54,103149548,-0.10067874938249588,-0.25491976737976074,174.2554168701172,0.03969401866197586
4409262.728,1476,1494,634014209,219.55,103149551,-0.21654722094535828,-0.20257174968719482,174.75830078125,0.06494486331939697
4409362.728,1486,1504,634014209,219.55,103149551,-0.12934009730815887,-0.12024475634098053,175.4581298828125,0.09291224181652069
4409462.728,1623,1504,634014210,219.58,103149554,-0.027353599667549133,-0.07803203910589218,176.18775939941406,0.0976361632347107
4409562.728,1480,1498,634014210,219.58,103149554,0.2881603240966797,-0.08457925170660019,176.88143920898438,0.09674466401338577
4409662.728,1480,1498,634014210,219.58,103149557,0.3105480670928955,-0.12014259397983551,177.30474853515625,0.05838045850396156
4409762.728,1481,1498,634014210,219.58,103149557,0.12179942429065704,-0.17250582575798035,177.4619140625,0.021182997152209282
4409862.728,1481,1498,634014210,219.57,103149561,-0.08100473880767822,-0.1945030242204666,177.66400146484375,0.022789366543293
4409962.728,1516,1497,634014210,219.57,103149561,-0.17590081691741943,-0.15903553366661072,178.0887451171875,0.053816936910152435
4410062.728,1901,1497,634014210,219.59,103149563,-0.08129483461380005,-0.06622161716222763,178.74880981445312,0.08885737508535385
4410162.728,1482,1497,634014210,219.59,103149563,0.07915594428777695,-0.1404225379228592,179.554931640625,0.11986880004405975
4410262.728,1481,1497,634014210,219.59,103149566,0.294450044631958,-0.11431397497653961,180.14381408691406,0.0892728790640831
4410362.728,1481,1497,634014210,219.59,103149566,0.16952547430992126,-0.15360704064369202,180.45542907714844,0.04452746361494064
4410462.728,1801,1497,634014210,219.6,103149569,0.08436499536037445,-0.219257190823555,180.6605682373047,0.02182105928659439
4410562.728,1901,1497,634014210,219.6,103149569,-0.33070987462997437,-0.136128231883049,180.95150756835938,0.035332128405570984
4410662.728,1888,1497,634014211,219.61,103149572,-0.29734358191490173,-0.14367805421352386,181.4516143798828,0.07363261282444
4410762.728,1862,1497,634014211,219.61,103149572,-0.7426456212997437,-0.057640425860881805,182.16256713867188,0.10234999656677246
4410862.728,1476,1497,634014214,219.62,103149575,-0.33895280957221985,-0.1552247405052185,183.06460571289062,0.13775929808616638
4410962.728,1478,1497,634014214,219.62,103149575,0.13931193947792053,-0.17905840277671814,183.81028747558594,0.11321868002414703
4411062.728,1478,1497,634014216,219.63,103149578,0.08927090466022491,-0.15173260867595673,184.26402282714844,0.0662226676940918
4411162.728,1478,1497,634014216,219.63,103149578,0.11083059757947922,-0.293947696685791,184.66783142089844,0.05142213776707649
4411262.728,1478,1497,634014218,219.64,103149581,0.0060805669054389,-0.28327879309654236,185.1648406982422,0.0693693608045578
4411362.728,1478,1497,634014218,219.64,103149581,0.07541732490062714,-0.12644392251968384,185.8460235595703,0.10028554499149323
4411462.728,1478,1497,634014220,219.65,103149584,0.06525542587041855,-0.10521309077739716,186.6238250732422,0.11771834641695023
4411562.728,1478,1497,634014220,219.65,103149584,0.13980227708816528,-0.11362707614898682,187.2935333251953,0.10810971260070801
4411662.728,1478,1497,634014223,219.66,103149586,0.14643719792366028,-0.15207311511039734,187.8153533935547,0.07716978341341019
4411762.728,1478,1497,634014223,219.66,103149586,0.06685782968997955,-0.28278666734695435,188.11146545410156,0.04333946108818054
4411862.728,1478,1497,634014225,219.67,103149589,-0.06186699494719505,-0.22639897465705872,188.38223266601562,0.03029715083539486
4411962.728,1478,1497,634014225,219.67,103149589,-0.09686602652072906,-0.13652509450912476,188.73953247070312,0.045920565724372864
4412062.728,1478,1497,634014227,219.67,103149592,-0.030665148049592972,-0.14251801371574402,189.2983856201172,0.07418940216302872
4412162.728,1478,1497,634014227,219.67,103149592,0.09572082757949829,-0.173288494348526,189.89846801757812,0.08750230073928833
4412262.728,1478,1497,634014229,219.67,103149595,0.19920861721038818,-0.15092116594314575,190.38626098632812,0.07445459812879562
4412362.728,1478,1497,634014229,219.67,103149595,0.16587600111961365,-0.17647592723369598,190.71884155273438,0.045618489384651184
4412462.728,1478,1497,634014230,219.68,103149598,0.05740462616086006,-0.19794665277004242,190.93798828125,0.025120792910456657
4412562.728,1478,1497,634014230,219.68,103149598,-0.03293335437774658,-0.15377195179462433,191.16615295410156,0.025983143597841263
4412662.728,1478,1497,634014232,219.68,103149601,-0.05601777136325836,-0.15602627396583557,191.50180053710938,0.04054038226604462
4412762.728,1478,1497,634014232,219.68,103149601,-0.038350027054548264,-0.14872373640537262,191.9010009765625,0.05427883565425873
4412862.728,1478,1497,634014234,219.7,103149605,0.04688623175024986,-0.18384923040866852,192.3199462890625,0.05993921309709549
4412962.728,1478,1497,634014234,219.7,103149605,0.08724412322044373,-0.21119371056556702,192.69918823242188,0.05268784612417221
4413062.728,1478,1497,634014236,219.7,103149608,0.10363110899925232,-0.1753930151462555,192.96253967285156,0.037380557507276535
4413162.728,1478,1497,634014236,219.7,103149608,0.0921218991279602,-0.1294901818037033,193.16726684570312,0.023803366348147392
4413262.728,1478,1497,634014238,219.72,103149612,0.04943273216485977,-0.12749123573303223,193.37657165527344,0.019022615626454353
4413362.728,1478,1497,634014238,219.72,103149612,-0.010817480273544788,-0.1624167561531067,193.5806427001953,0.025784097611904144
4413462.728,1478,1497,634014239,219.72,103149615,-0.035078298300504684,-0.18263424932956696,193.88677978515625,0.0410565510392189
4413562.728,1478,1497,634014239,219.72,103149615,-0.0027911728248000145,-0.19113361835479736,194.2606201171875,0.053654417395591736
4413662.728,1478,1497,634014241,219.72,103149618,0.06689300388097763,-0.1842023730278015,194.62591552734375,0.05102841556072235
4413762.728,1478,1497,634014241,219.72,103149618,0.11424542218446732,-0.16536983847618103,194.89553833007812,0.03314722329378128
4413862.728,1478,1497,634014243,219.72,103149622,0.08818159252405167,-0.1522901952266693,195.0692138671875,0.015111956745386124
4413962.728,1478,1497,634014243,219.72,103149622,0.022774595767259598,-0.14013761281967163,195.23397827148438,0.011981511488556862
4414062.728,1478,1497,634014245,219.73,103149624,-0.028027508407831192,-0.14210957288742065,195.46669006347656,0.02539677917957306
4414162.728,1478,1497,634014245,219.73,103149624,-0.026653952896595,-0.1601656973361969,195.8231964111328,0.044454269111156464
4414262.728,1478,1497,634014248,219.74,103149627,0.044098153710365295,-0.20141470432281494,196.19520568847656,0.05293559655547142
4414362.728,1478,1497,634014248,219.74,103149627,0.11052114516496658,-0.19645783305168152,196.4980926513672,0.04066435992717743
4414462.728,1478,1497,634014249,219.74,103149630,0.09427429735660553,-0.15149986743927002,196.68634033203125,0.020376721397042274
4414562.728,1478,1497,634014249,219.74,103149630,0.02270033210515976,-0.14091238379478455,196.8104705810547,0.01134873554110527
4414662.728,1478,1497,634014251,219.75,103149631,-0.02245313674211502,-0.1546638160943985,196.9970703125,0.01800774410367012
4414762.728,1478,1497,634014251,219.75,103149631,0.00569457933306694,-0.1887013018131256,197.25730895996094,0.029544010758399963
4414862.728,1478,1497,634014253,219.75,103149635,0.034779906272888184,-0.16032257676124573,197.53741455078125,0.036140814423561096
4414962.728,1478,1497,634014253,219.75,103149635,0.05646780878305435,-0.14442308247089386,197.83241271972656,0.03738948702812195
4415062.728,1478,1497,634014255,219.77,103149637,0.07109161466360092,-0.1773400902748108,198.08734130859375,0.03185024857521057
4415162.728,1478,1497,634014255,219.77,103149637,0.07733678817749023,-0.20155149698257446,198.26345825195312,0.019588932394981384
4415262.728,1478,1497,634014257,219.76,103149639,0.03880379721522331,-0.1587931513786316,198.3832550048828,0.008009248413145542
4415362.728,1478,1497,634014257,219.76,103149639,-0.007126827258616686,-0.12065059691667557,198.52711486816406,0.010999075137078762
4415462.728,1478,1497,634014259,219.78,103149643,-0.01857476867735386,-0.13897503912448883,198.73086547851562,0.02583269588649273
4415562.728,1478,1497,634014259,219.78,103149643,0.04538172855973244,-0.1914954036474228,198.98414611816406,0.03425018489360809
4415662.728,1478,1497,634014262,219.8,103149644,0.07681722193956375,-0.1804400235414505,199.20321655273438,0.026568656787276268
4415762.728,1478,1497,634014262,219.8,103149644,0.05654345452785492,-0.160248264670372,199.32205200195312,0.014913653954863548
4415862.728,1478,1497,634014264,219.81,103149647,0.03378792107105255,-0.1524605005979538,199.43125915527344,0.01078330259770155
4415962.728,1478,1497,634014264,219.81,103149647,0.026204947382211685,-0.150615394115448,199.58285522460938,0.013821426779031754
4416062.728,1478,1497,634014265,219.81,103149649,0.03426361829042435,-0.15204393863677979,199.73226928710938,0.017955373972654343
4416162.728,1478,1497,634014265,219.81,103149649,0.03864982724189758,-0.15147152543067932,199.88571166992188,0.01850936934351921
4416262.728,1478,1497,634014267,219.82,103149652,0.02450256049633026,-0.17405691742897034,200.06488037109375,0.015874790027737617
4416362.728,1478,1497,634014267,219.82,103149652,0.015415022149682045,-0.16765627264976501,200.2226104736328,0.015333810821175575
4416462.728,1478,1497,634014269,219.81,103149654,0.03532245755195618,-0.16000017523765564,200.36912536621094,0.018245356157422066
4416562.728,1478,1497,634014269,219.81,103149654,0.05942422151565552,-0.1669664978981018,200.48464965820312,0.017460418865084648
4416662.728,1478,1497,634014270,219.82,103149656,0.057564571499824524,-0.15965358912944794,200.59986877441406,0.011418486014008522
4416762.728,1478,1497,634014270,219.82,103149656,0.030384289100766182,-0.15003369748592377,200.71241760253906,0.008197259157896042
4416862.728,1478,1497,634014271,219.82,103149659,0.016105588525533676,-0.16643685102462769,200.8094940185547,0.010563179850578308
4416962.728,1478,1497,634014271,219.82,103149659,0.015758518129587173,-0.1701717972755432,200.95657348632812,0.014803102239966393
4417062.728,1478,1497,634014273,219.82,103149661,0.01950898952782154,-0.14801739156246185,201.08534240722656,0.016638971865177155
4417162.728,1478,1497,634014273,219.82,103149661,0.04551871493458748,-0.152753084897995,201.21212768554688,0.016040917485952377
4417262.728,1478,1497,634014275,219.82,103149663,0.06414870917797089,-0.1733981966972351,201.3133087158203,0.013120654970407486
4417362.728,1478,1497,634014275,219.82,103149663,0.05028059333562851,-0.1838569939136505,201.3567352294922,0.006865173578262329
4417462.728,1478,1497,634014275,219.82,103149666,0.013578588142991066,-0.1487267017364502,201.3975830078125,0.0034918503370136023
4417562.728,1478,1497,634014275,219.82,103149666,0.007122356444597244,-0.13603147864341736,201.49278259277344,0.007721920497715473
4417662.728,1478,1497,634014277,219.83,103149668,0.02760622650384903,-0.1764465868473053,201.62181091308594,0.012903126887977123
4417762.728,1478,1497,634014277,219.83,103149668,0.037935685366392136,-0.18028482794761658,201.76718139648438,0.01326007954776287
4417862.728,1478,1497,634014279,219.83,103149672,0.03431074693799019,-0.1467854529619217,201.86209106445312,0.011227117851376534
4417962.728,1478,1497,634014279,219.83,103149672,0.05668389052152634,-0.14138706028461456,201.9759979248047,0.0084331464022398
4418062.728,1478,1497,634014280,219.84,103149674,0.06148884817957878,-0.1711280196905136,202.04541015625,0.003284244565293193
4418162.728,1478,1497,634014280,219.84,103149674,0.03180791437625885,-0.17080791294574738,202.08331298828125,-0.0003480469749774784
4418262.728,1478,1497,634014282,219.85,103149678,-0.0009503629989922047,-0.1576664000749588,202.13299560546875,0.0014912987826392055
4418362.728,1483,1496,634014282,219.85,103149678,0.009953685104846954,-0.14740823209285736,202.2425079345703,0.007958395406603813
4418462.728,1485,1685,634014283,219.85,103149681,0.055239610373973846,-0.16607987880706787,202.36141967773438,0.012367445975542068
4418562.728,1485,1814,634014283,219.85,103149681,0.5927507877349854,-0.18640294671058655,202.466796875,0.007786656729876995
4418662.728,1485,1644,634014283,219.86,103149684,0.6449607014656067,-0.18503595888614655,202.56703186035156,0.0010811694664880633
4418762.728,1485,1480,634014283,219.86,103149684,1.329618215560913,-0.14763502776622772,202.64254760742188,-0.0005253260023891926
4418862.728,1485,1474,634014281,219.87,103149686,0.6873918175697327,-0.13077732920646667,202.75277709960938,0.007735010236501694
4418962.728,1490,1474,634014281,219.87,103149686,0.3338514566421509,-0.1570814847946167,202.9096221923828,0.019408829510211945
4419062.728,1503,1659,634014278,219.87,103149688,0.12839114665985107,-0.19864660501480103,203.0139617919922,0.01881507597863674
4419162.728,1504,1861,634014278,219.87,103149688,0.1221008151769638,-0.17060445249080658,203.0553741455078,0.008453214541077614
4419262.728,1501,1733,634014275,219.89,103149688,0.21126243472099304,-0.1482783555984497,203.14251708984375,0.006238682195544243
4419362.728,1491,1492,634014275,219.89,103149688,0.7182163596153259,-0.18180322647094727,203.2179412841797,0.010676030069589615
4419462.728,1496,1472,634014270,219.89,103149686,1.1471980810165405,-0.19587886333465576,203.35626220703125,0.007327209692448378
4419562.728,1703,1472,634014270,219.89,103149686,1.000962734222412,-0.043279506266117096,203.5017547607422,0.0037883142940700054
4419662.728,1808,1472,634014262,219.89,103149680,1.4658095836639404,0.29702821373939514,204.0508575439453,0.07310771942138672
4419762.728,1883,1475,634014262,219.89,103149680,1.2860318422317505,0.18857133388519287,205.35166931152344,0.20629404485225677
4419862.728,1879,1477,634014251,219.89,103149672,1.3985390663146973,0.1573621779680252,207.44053649902344,0.28553539514541626
4419962.728,1873,1477,634014251,219.89,103149672,0.7779126763343811,0.33776402473449707,209.40545654296875,0.3241152763366699
4420062.728,1872,1477,634014241,219.89,103149660,-0.5135295987129211,0.349456250667572,211.7349853515625,0.3721052408218384
4420162.728,1793,1477,634014241,219.89,103149660,-0.9622274041175842,0.38148370385169983,214.70046997070312,0.47186410427093506
4420262.728,1744,1477,634014235,219.89,103149649,-0.7225841283798218,0.333434134721756,218.0312042236328,0.548464298248291
4420362.728,1733,1476,634014235,219.89,103149649,-0.547502875328064,0.29192349314689636,221.3949432373047,0.5651893615722656
4420462.728,1673,1473,634014232,219.9,103149638,-0.6456066370010376,0.21318070590496063,224.9481658935547,0.581007719039917
4420562.728,1639,1472,634014232,219.9,103149638,-0.0034843701869249344,0.30632007122039795,228.54989624023438,0.6074227094650269
4420662.728,1627,1472,634014231,219.91,103149626,-0.2734641134738922,0.011317489668726921,232.0487518310547,0.6049048900604248
4420762.728,1627,1472,634014231,219.91,103149626,-0.2700785994529724,-0.025314146652817726,235.55410766601562,0.6104023456573486
4420862.728,1627,1472,634014230,219.91,103149615,-0.4533831477165222,0.027435915544629097,239.09100341796875,0.6196810007095337
4420962.728,1631,1472,634014230,219.91,103149615,-0.4954732656478882,-0.1255517154932022,242.55528259277344,0.6125705242156982
4421062.728,1732,1472,634014229,219.92,103149607,-0.5510052442550659,-0.021604206413030624,246.07369995117188,0.6054145097732544
4421162.728,1778,1472,634014229,219.92,103149607,-0.9371482133865356,0.08904644846916199,250.10372924804688,0.664846658706665
4421262.728,1784,1472,634014231,219.92,103149603,-0.43624013662338257,0.045077819377183914,254.60272216796875,0.7565577030181885
4421362.728,1784,1472,634014231,219.92,103149603,-0.36316627264022827,0.22308005392551422,259.32098388671875,0.8017908334732056
4421462.728,1784,1472,634014233,219.93,103149601,-0.3286171555519104,0.16924002766609192,264.3392639160156,0.8415175676345825
4421562.728,1785,1472,634014233,219.93,103149601,-0.49478426575660706,0.028496576473116875,269.61871337890625,0.9006392955780029
4421662.728,1785,1472,634014235,219.93,103149603,-0.44552457332611084,-0.1566060483455658,275.1860656738281,0.9654704928398132
4421762.728,1785,1472,634014235,219.93,103149603,-0.4522629678249359,-0.44568371772766113,280.8294677734375,0.9974380731582642
4421862.728,1785,1472,634014236,219.93,103149607,-0.46729016304016113,-0.3139913082122803,286.4154968261719,0.9931715130805969
4421962.728,1785,1472,634014236,219.93,103149607,-0.40184473991394043,-0.37153664231300354,291.88818359375,0.9765497446060181
4422062.728,1785,1472,634014236,219.92,103149613,-0.39284780621528625,-0.18254996836185455,297.3758239746094,0.9640786051750183
4422162.728,1785,1472,634014236,219.92,103149613,-0.40840864181518555,-0.07198639214038849,302.8576354980469,0.9707165956497192
4422262.728,1785,1472,634014237,219.92,103149620,-0.33552563190460205,-0.17198938131332397,308.4009704589844,0.9860597252845764
4422362.728,1785,1472,634014237,219.92,103149620,-0.3524210453033447,-0.0077980272471904755,313.9569396972656,0.9969523549079895
4422462.728,1785,1472,634014236,219.91,103149628,-0.1391628384590149,-0.1398790180683136,319.4808349609375,1.0024129152297974
4422562.728,1782,1472,634014236,219.91,103149628,-0.22644303739070892,-0.3127348721027374,324.82781982421875,0.9788357019424438
4422662.728,1779,1472,634014234,219.92,103149637,-0.19691553711891174,-0.41626477241516113,330.0509033203125,0.948639988899231
4422762.728,1757,1473,634014234,219.92,103149637,-0.3901039958000183,-0.23669947683811188,335.11761474609375,0.9230517745018005
4422862.728,1726,1496,634014233,219.94,103149643,-0.3346526622772217,-0.3080808222293854,341.2323303222656,0.9193673133850098
4422962.728,1722,1498,634014233,219.94,103149643,-0.1872335523366928,-0.3927510678768158,346.21539306640625,0.9150082468986511
4423062.728,1645,1504,634014229,219.92,103149648,-0.1474442034959793,-0.34018474817276,350.9837951660156,0.8900327086448669
4423162.728,1616,1536,634014229,219.92,103149648,0.4417133331298828,-0.22042328119277954,355.1232604980469,0.8165517449378967
4423262.728,1500,1616,634014227,219.93,103149649,0.10277698189020157,-0.3844171166419983,358.7383728027344,0.7036657333374023
4423362.728,1492,1695,634014227,219.93,103149649,0.6078504323959351,-0.48031124472618103,1.8454147577285767,0.5938124060630798
4423462.728,1490,1800,634014226,219.93,103149652,1.3564116954803467,-0.06762940436601639,4.808009147644043,0.5353448390960693
4423562.728,1490,1830,634014226,219.93,103149652,1.8968900442123413,-0.05420351400971413,7.844491481781006,0.526637077331543
4423662.728,1490,1836,634014231,219.93,103149656,2.9777369499206543,0.007606161758303642,10.92440414428711,0.5443155765533447
4423762.728,1490,1837,634014231,219.93,103149656,4.788691520690918,0.18005667626857758,13.526966094970703,0.5157818794250488
4423862.728,1489,1837,634014251,219.95,103149667,5.101993560791016,0.07188311219215393,15.224342346191406,0.3691664934158325
4423962.728,1484,1798,634014251,219.95,103149667,4.463871002197266,0.14334803819656372,16.228593826293945,0.219639390707016
4424062.728,1481,1670,634014280,219.93,103149685,2.945282459259033,0.18502089381217957,16.797988891601562,0.14040285348892212
4424162.728,1481,1670,634014280,219.93,103149685,1.7127923965454102,-0.040789779275655746,17.01779556274414,0.09037674218416214
4424262.728,1474,1650,634014310,219.94,103149704,0.7504687309265137,-0.23257184028625488,16.99224090576172,0.041407376527786255
4424362.728,1474,1650,634014310,219.94,103149704,0.3252657651901245,-0.20740212500095367,16.864643096923828,0.010574026964604855
4424462.728,1473,1623,634014338,219.94,103149723,-0.08965826034545898,-0.24729111790657043,16.70034408569336,-0.008506766520440578
4424562.728,1473,1617,634014338,219.94,103149723,-0.1550437957048416,-0.27983441948890686,16.47369956970215,-0.025356383994221687
4424662.728,1473,1616,634014364,219.96,103149740,0.04215991124510765,-0.17795304954051971,16.25615882873535,-0.030521206557750702
4424762.728,1472,1615,634014364,219.96,103149740,0.14810410141944885,-0.1568952202796936,16.00545883178711,-0.02384701929986477
4424862.728,1461,1615,634014388,219.95,103149755,0.18004260957241058,-0.2626553773880005,15.752256393432617,-0.023290108889341354
4424962.728,1459,1621,634014388,219.95,103149755,0.21337845921516418,-0.23268720507621765,15.440067291259766,-0.03036767616868019
4425062.728,1459,1643,634014411,219.94,103149769,0.33871927857398987,-0.3348822295665741,15.008688926696777,-0.044266343116760254
4425162.728,1477,1726,634014411,219.94,103149769,1.0749692916870117,-0.3759351670742035,14.55453109741211,-0.066414013504982
4425262.728,1488,1746,634014437,219.96,103149783,1.7714428901672363,-0.20529532432556152,14.220263481140137,-0.06475803256034851
4425362.728,1491,1756,634014437,219.96,103149783,2.115767478942871,-0.16012920439243317,14.029698371887207,-0.03968646749854088
4425462.728,1492,1758,634014467,219.96,103149798,2.3338398933410645,-0.13388638198375702,13.939264297485352,-0.0123629504814744
4425562.728,1492,1758,634014467,219.96,103149798,2.1994707584381104,-0.04954037070274353,13.868834495544434,0.005105514544993639
4425662.728,1502,1758,634014501,219.97,103149817,2.133388042449951,-0.12534789741039276,13.741168022155762,0.008354688994586468
4425762.728,1514,1758,634014501,219.97,103149817,1.8549352884292603,-0.2351641058921814,13.529153823852539,-0.0014049755409359932
4425862.728,1546,1758,634014536,219.98,103149836,1.6993498802185059,-0.17403072118759155,13.328469276428223,-0.014246705919504166
4425962.728,1607,1753,634014536,219.98,103149836,1.4487677812576294,-0.0985974669456482,13.398688316345215,-0.003252983558923006
4426062.728,1630,1752,634014571,219.99,103149857,1.3168141841888428,0.12043718993663788,13.859162330627441,0.05941172316670418
4426162.728,1631,1752,634014571,219.99,103149857,1.422322392463684,0.26123613119125366,14.531968116760254,0.12340712547302246
4426262.728,1631,1752,634014606,219.99,103149880,1.4306930303573608,0.2468266487121582,15.296500205993652,0.15272894501686096
4426362.728,1631,1752,634014606,219.99,103149880,1.459991216659546,0.3044589161872864,16.05645751953125,0.16166424751281738
4426462.728,1631,1752,634014642,220,103149906,1.4201956987380981,0.2552725672721863,16.76138687133789,0.16061586141586304
4426562.728,1631,1752,634014642,220,103149906,1.4828615188598633,0.06280934065580368,17.338361740112305,0.1458851397037506
4426662.728,1631,1752,634014677,219.99,103149935,1.4618033170700073,0.0009988175006583333,17.820756912231445,0.12188198417425156
4426762.728,1631,1752,634014677,219.99,103149935,1.3966100215911865,-0.00994233787059784,18.283729553222656,0.10800483822822571
4426862.728,1631,1752,634014712,220,103149965,1.4300496578216553,-0.041304901242256165,18.779584884643555,0.10603243112564087
4426962.728,1631,1752,634014712,220,103149965,1.3022829294204712,0.08931043744087219,19.322467803955078,0.11464299261569977
4427062.728,1631,1752,634014747,220,103149995,1.3170201778411865,0.12666741013526917,19.897117614746094,0.12630900740623474
4427162.728,1643,1720,634014747,220,103149995,1.0595476627349854,0.16325944662094116,20.527240753173828,0.1320878267288208
4427262.728,1676,1704,634014781,220,103150029,0.9059902429580688,0.2870138883590698,21.30256462097168,0.14255169034004211
4427362.728,1688,1691,634014781,220,103150029,0.8373283743858337,0.24319744110107422,22.186500549316406,0.16523630917072296
4427462.728,1689,1626,634014813,220,103150063,0.6958804726600647,0.1911066770553589,22.953208923339844,0.1746830940246582
4427562.728,1689,1623,634014813,220,103150063,0.5191832780838013,0.1264437884092331,23.59844207763672,0.1478814035654068
4427662.728,1689,1598,634014842,220.01,103150098,0.4757773280143738,0.10142762959003448,24.169010162353516,0.12690135836601257
4427762.728,1689,1574,634014842,220.01,103150098,0.20490296185016632,-0.0036890150513499975,24.589963912963867,0.10845077782869339
4427862.728,1689,1569,634014871,220.01,103150130,0.18433305621147156,-0.052289657294750214,24.939939498901367,0.08356711268424988
4427962.728,1689,1569,634014871,220.01,103150130,0.28070223331451416,-0.06825736165046692,25.28107261657715,0.07056640088558197
4428062.728,1689,1576,634014896,220,103150161,0.3213922679424286,0.013467350974678993,25.62041664123535,0.06561696529388428
4428162.728,1689,1581,634014896,220,103150161,0.49086248874664307,-0.02736109495162964,25.997953414916992,0.07102838158607483
4428262.728,1689,1591,634014920,220.02,103150191,0.5730904340744019,0.014255499467253685,26.420452117919922,0.08147574216127396
4428362.728,1689,1612,634014920,220.02,103150191,0.73770672082901,0.0280296728014946,26.94510841369629,0.09275268018245697
4428462.728,1689,1615,634014943,220.01,103150223,0.8879940509796143,0.042240723967552185,27.550554275512695,0.10854147374629974
4428562.728,1689,1616,634014943,220.01,103150223,0.9356655478477478,0.08369985222816467,28.18114471435547,0.12064598500728607
4428662.728,1698,1618,634014967,220.01,103150256,0.965532660484314,0.07947856187820435,28.813718795776367,0.12659992277622223
4428762.728,1703,1623,634014967,220.01,103150256,1.0169365406036377,0.07731106877326965,29.46243667602539,0.12878528237342834
4428862.728,1704,1630,634014989,220,103150292,1.0809129476547241,0.12401244044303894,30.145095825195312,0.13380920886993408
4428962.728,1704,1644,634014989,220,103150292,1.1317720413208008,0.10980069637298584,30.855182647705078,0.13871945440769196
4429062.728,1704,1670,634015012,220.01,103150329,1.2666997909545898,0.0881781280040741,31.600906372070312,0.1435975879430771
4429162.728,1704,1670,634015012,220.01,103150329,1.3383421897888184,0.1467229574918747,32.37761688232422,0.1504615992307663
4429262.728,1704,1671,634015035,220.02,103150370,1.347529411315918,0.10250868648290634,33.15174865722656,0.15816663205623627
4429362.728,1704,1671,634015035,220.02,103150370,1.4172744750976562,0.09821341931819916,33.9052848815918,0.15574076771736145
4429462.728,1704,1671,634015059,220.02,103150414,1.3452396392822266,0.09689931571483612,34.638877868652344,0.15176400542259216
4429562.728,1704,1673,634015059,220.02,103150414,1.322846531867981,0.07378870248794556,35.331787109375,0.14771923422813416
4429662.728,1704,1673,634015083,220.03,103150460,1.30568528175354,0.056611593812704086,36.01744842529297,0.1426691859960556
4429762.728,1704,1674,634015083,220.03,103150460,1.2719289064407349,0.1012059897184372,36.718849182128906,0.1402691751718521
4429862.728,1704,1675,634015106,220.03,103150508,1.2475078105926514,0.08967706561088562,37.42469787597656,0.14097990095615387
4429962.728,1704,1675,634015106,220.03,103150508,1.2945691347122192,0.030250299721956253,38.12357711791992,0.1433202475309372
4430062.728,1704,1676,634015129,220.04,103150559,1.258522391319275,0.12434139847755432,38.83440017700195,0.14556559920310974
4430162.728,1704,1676,634015129,220.04,103150559,1.2211616039276123,0.0853152945637703,39.528682708740234,0.1460217386484146
4430262.728,1704,1676,634015151,220.05,103150611,1.2323718070983887,0.08656224608421326,40.231693267822266,0.1433972865343094
4430362.728,1704,1676,634015151,220.05,103150611,1.1829752922058105,0.11766251921653748,40.936065673828125,0.14219063520431519
4430462.728,1704,1677,634015173,220.06,103150665,1.16103994846344,0.10186228156089783,41.65936279296875,0.14269044995307922
4430562.728,1704,1678,634015173,220.06,103150665,1.1964020729064941,0.09814061969518661,42.438446044921875,0.14882659912109375
4430662.728,1704,1678,634015194,220.05,103150721,1.1683070659637451,0.15553933382034302,43.238853454589844,0.1553264856338501
4430762.728,1705,1679,634015194,220.05,103150721,1.2202858924865723,0.10463817417621613,44.038448333740234,0.1585012823343277
4430862.728,1715,1679,634015214,220.07,103150778,1.239649772644043,0.14662274718284607,44.87702941894531,0.16028770804405212
4430962.728,1728,1679,634015214,220.07,103150778,1.2993569374084473,0.15064674615859985,45.74110794067383,0.16188672184944153
4431062.728,1729,1679,634015234,220.07,103150837,1.2877826690673828,0.1392109990119934,46.61162567138672,0.16623683273792267
4431162.728,1729,1679,634015234,220.07,103150837,1.3189013004302979,0.1774919480085373,47.49279022216797,0.17151957750320435
4431262.728,1729,1679,634015253,220.09,103150899,1.379629373550415,0.1661151945590973,48.40826416015625,0.17635688185691833
4431362.728,1729,1679,634015253,220.09,103150899,1.3599815368652344,0.1665845364332199,49.33003616333008,0.17811588943004608
4431462.728,1729,1679,634015271,220.1,103150962,1.327030897140503,0.15874451398849487,50.203792572021484,0.17482365667819977
4431562.728,1729,1679,634015271,220.1,103150962,1.3051949739456177,0.16404810547828674,51.05636215209961,0.16866058111190796
4431662.728,1729,1679,634015287,220.11,103151029,1.3166658878326416,0.1528690904378891,51.880638122558594,0.16310995817184448
4431762.728,1729,1679,634015287,220.11,103151029,1.2970991134643555,0.16788136959075928,52.725162506103516,0.16168810427188873
4431862.728,1729,1679,634015304,220.11,103151095,1.2805994749069214,0.10177788138389587,53.56097412109375,0.16224728524684906
4431962.728,1729,1679,634015304,220.11,103151095,1.3028424978256226,0.13599929213523865,54.3929443359375,0.15900444984436035
4432062.728,1729,1679,634015320,220.12,103151164,1.2593917846679688,0.14859135448932648,55.18684005737305,0.1569977104663849
4432162.728,1729,1679,634015320,220.12,103151164,1.2689473628997803,0.10867605358362198,55.99378967285156,0.15428698062896729
4432262.728,1729,1679,634015334,220.14,103151233,1.2403521537780762,0.17161527276039124,56.85581970214844,0.1585909128189087
4432362.728,1729,1679,634015334,220.14,103151233,1.2605293989181519,0.1319536417722702,57.72590637207031,0.1610252857208252
4432462.728,1730,1679,634015347,220.14,103151304,1.24031662940979,0.1705510914325714,58.583736419677734,0.1616540253162384
4432562.728,1754,1679,634015347,220.14,103151304,1.377642035484314,0.19414307177066803,59.48786544799805,0.16460144519805908
4432662.728,1757,1679,634015359,220.15,103151376,1.3524210453033447,0.19266806542873383,60.424400329589844,0.174605131149292
4432762.728,1757,1679,634015359,220.15,103151376,1.4007494449615479,0.23526223003864288,61.40071487426758,0.18045026063919067
4432862.728,1757,1679,634015369,220.14,103151449,1.377008318901062,0.2317708432674408,62.3646240234375,0.18339262902736664
4432962.728,1757,1679,634015369,220.14,103151449,1.3805550336837769,0.22102214395999908,63.33086395263672,0.1818147599697113
4433062.728,1757,1679,634015379,220.14,103151524,1.3447835445404053,0.1930716633796692,64.2785415649414,0.18087069690227509
4433162.728,1757,1679,634015379,220.14,103151524,1.342751383781433,0.18385349214076996,65.25410461425781,0.17901399731636047
4433262.728,1757,1679,634015388,220.16,103151599,1.3004506826400757,0.2042444348335266,66.24125671386719,0.17928914725780487
4433362.728,1757,1679,634015388,220.16,103151599,1.3303701877593994,0.18104253709316254,67.21894836425781,0.1827521175146103
4433462.728,1757,1679,634015395,220.14,103151674,1.2485408782958984,0.20497684180736542,68.21302032470703,0.18281330168247223
4433562.728,1757,1679,634015395,220.14,103151674,1.2943196296691895,0.17823415994644165,69.22766876220703,0.18464432656764984
4433662.728,1757,1679,634015402,220.16,103151752,1.2814345359802246,0.2407129555940628,70.25233459472656,0.18752123415470123
4433762.728,1757,1679,634015402,220.16,103151752,1.3062294721603394,0.21467138826847076,71.2879638671875,0.1875099241733551
4433862.728,1757,1679,634015407,220.16,103151831,1.2985624074935913,0.19391679763793945,72.29682159423828,0.18796926736831665
4433962.728,1757,1679,634015407,220.16,103151831,1.3260117769241333,0.2076108455657959,73.28299713134766,0.1856665015220642
4434062.728,1757,1666,634015409,220.17,103151909,1.2836487293243408,0.21164900064468384,74.3063735961914,0.18362054228782654
4434162.728,1757,1658,634015409,220.17,103151909,1.2433468103408813,0.1753566563129425,75.32455444335938,0.182342067360878
4434262.728,1757,1657,634015412,220.17,103151987,1.27119779586792,0.15880186855793,76.33715057373047,0.17736640572547913
4434362.728,1757,1657,634015412,220.17,103151987,1.2191427946090698,0.143144428730011,77.31904602050781,0.17233608663082123
4434462.728,1757,1657,634015414,220.16,103152063,1.2197484970092773,0.13034296035766602,78.28430938720703,0.1676623523235321
4434562.728,1757,1657,634015414,220.16,103152063,1.1833107471466064,0.1566058099269867,79.25473022460938,0.16681630909442902
4434662.728,1757,1657,634015413,220.16,103152142,1.233262300491333,0.18951065838336945,80.25032806396484,0.1708236038684845
4434762.728,1757,1657,634015413,220.16,103152142,1.2384448051452637,0.195975661277771,81.25694274902344,0.17483733594417572
4434862.728,1757,1657,634015412,220.16,103152218,1.251654863357544,0.1863342672586441,82.2896728515625,0.17386111617088318
4434962.728,1757,1657,634015412,220.16,103152218,1.2543320655822754,0.20545801520347595,83.31185913085938,0.17546240985393524
4435062.728,1757,1657,634015410,220.16,103152296,1.2284972667694092,0.18312685191631317,84.33567810058594,0.17511750757694244
4435162.728,1757,1657,634015410,220.16,103152296,1.2659275531768799,0.19939261674880981,85.37879180908203,0.17540419101715088
4435262.728,1757,1657,634015406,220.16,103152372,1.1989328861236572,0.1843055933713913,86.44178009033203,0.17719081044197083
4435362.728,1757,1657,634015406,220.16,103152372,1.2301933765411377,0.22407166659832,87.53797912597656,0.18104586005210876
4435462.728,1757,1657,634015401,220.15,103152449,1.2343546152114868,0.2488335371017456,88.6318130493164,0.18545866012573242
4435562.728,1757,1657,634015401,220.15,103152449,1.2846633195877075,0.239074245095253,89.75181579589844,0.18609046936035156
4435662.728,1757,1657,634015394,220.15,103152523,1.250320315361023,0.24188601970672607,90.90322875976562,0.18840853869915009
4435762.728,1757,1657,634015394,220.15,103152523,1.2756774425506592,0.21402357518672943,92.04692840576172,0.18936479091644287
4435862.728,1757,1657,634015387,220.15,103152598,1.2262465953826904,0.20176392793655396,93.18270111083984,0.19007591903209686
4435962.728,1757,1657,634015387,220.15,103152598,1.2999454736709595,0.2004079818725586,94.32536315917969,0.18937183916568756
4436062.728,1757,1657,634015378,220.16,103152672,1.217349648475647,0.21261221170425415,95.43824768066406,0.18619689345359802
4436162.728,1757,1657,634015378,220.16,103152672,1.2475582361221313,0.20466938614845276,96.55558776855469,0.18449726700782776
4436262.728,1757,1657,634015367,220.16,103152746,1.246222734451294,0.18433994054794312,97.6697006225586,0.18212351202964783
4436362.728,1757,1657,634015367,220.16,103152746,1.2333757877349854,0.18949852883815765,98.75247192382812,0.1781347095966339
4436462.728,1757,1657,634015356,220.18,103152817,1.2539217472076416,0.1433032900094986,99.81653594970703,0.1748175323009491
4436562.728,1757,1657,634015356,220.18,103152817,1.2405661344528198,0.11319833993911743,100.89558410644531,0.17122377455234528
4436662.728,1757,1657,634015344,220.18,103152890,1.2376030683517456,0.17863406240940094,101.96981048583984,0.1698017418384552
4436762.728,1757,1657,634015344,220.18,103152890,1.238038420677185,0.13381609320640564,103.04658508300781,0.16937613487243652
4436862.728,1758,1657,634015330,220.17,103152960,1.2289496660232544,0.1566033661365509,104.11215209960938,0.17023368179798126
4436962.728,1758,1657,634015330,220.17,103152960,1.2438279390335083,0.2098388969898224,105.21200561523438,0.17234185338020325
4437062.728,1761,1657,634015315,220.17,103153030,1.2574751377105713,0.1615258753299713,106.33457946777344,0.1750362515449524
4437162.728,1771,1657,634015315,220.17,103153030,1.2419742345809937,0.22469493746757507,107.50183868408203,0.17769458889961243
4437262.728,1781,1657,634015299,220.19,103153097,1.3194736242294312,0.19983090460300446,108.67710876464844,0.18352824449539185
4437362.728,1790,1657,634015299,220.19,103153097,1.3171426057815552,0.163826584815979,109.83848571777344,0.18496277928352356
4437462.728,1791,1657,634015282,220.19,103153165,1.3654932975769043,0.20723378658294678,111.01406860351562,0.18450775742530823
4437562.728,1791,1657,634015282,220.19,103153165,1.3091187477111816,0.1873966008424759,112.1820297241211,0.18097281455993652
4437662.728,1792,1657,634015264,220.2,103153232,1.2863094806671143,0.19956815242767334,113.32237243652344,0.177176833152771
4437762.728,1792,1657,634015264,220.2,103153232,1.3000986576080322,0.22181153297424316,114.4259033203125,0.17541322112083435
4437862.728,1796,1657,634015244,220.19,103153298,1.2356388568878174,0.24145513772964478,115.54564666748047,0.1757839322090149
4437962.728,1810,1657,634015244,220.19,103153298,1.2739635705947876,0.20220494270324707,116.68194580078125,0.17858245968818665
4438062.728,1811,1657,634015222,220.17,103153362,1.224252462387085,0.22982589900493622,117.86983489990234,0.18065422773361206
4438162.728,1811,1657,634015222,220.17,103153362,1.262278437614441,0.19878265261650085,119.07701873779297,0.18524625897407532
4438262.728,1811,1657,634015200,220.18,103153425,1.2282421588897705,0.19271770119667053,120.30951690673828,0.18725578486919403
4438362.728,1811,1657,634015200,220.18,103153425,1.251184105873108,0.21639439463615417,121.52061462402344,0.18906530737876892
4438462.728,1812,1657,634015178,220.21,103153484,1.2733216285705566,0.2172553837299347,122.71724700927734,0.1881064623594284
4438562.728,1812,1657,634015178,220.21,103153484,1.320159673690796,0.22687837481498718,123.9051742553711,0.1877700686454773
4438662.728,1812,1657,634015154,220.2,103153544,1.2724246978759766,0.22936226427555084,125.07804870605469,0.18918874859809875
4438762.728,1812,1657,634015154,220.2,103153544,1.2866166830062866,0.19885246455669403,126.27647399902344,0.18881484866142273
4438862.728,1812,1658,634015130,220.21,103153600,1.2663052082061768,0.20890983939170837,127.48638916015625,0.1857241690158844
4438962.728,1812,1658,634015130,220.21,103153600,1.2582075595855713,0.13897275924682617,128.6417694091797,0.1827647089958191
4439062.728,1812,1658,634015105,220.25,103153654,1.2399415969848633,0.1798904836177826,129.79721069335938,0.1812175065279007
4439162.728,1812,1658,634015105,220.25,103153654,1.2545771598815918,0.19944876432418823,130.98135375976562,0.18230122327804565
4439262.728,1812,1658,634015079,220.26,103153704,1.2470345497131348,0.24212545156478882,132.21405029296875,0.18619316816329956
4439362.728,1812,1658,634015079,220.26,103153704,1.2761198282241821,0.26834189891815186,133.4508819580078,0.191850945353508
4439462.728,1812,1658,634015051,220.25,103153754,1.2170557975769043,0.22667597234249115,134.68231201171875,0.1925172656774521
4439562.728,1812,1658,634015051,220.25,103153754,1.2590645551681519,0.19608667492866516,135.92440795898438,0.1913173645734787
4439662.728,1812,1658,634015022,220.24,103153802,1.2636990547180176,0.16813503205776215,137.1496124267578,0.18987837433815002
4439762.728,1812,1658,634015022,220.24,103153802,1.2593828439712524,0.2000477910041809,138.4029083251953,0.18612509965896606
4439862.728,1812,1658,634014993,220.24,103153846,1.239162802696228,0.18502822518348694,139.69375610351562,0.18939658999443054
4439962.728,1813,1658,634014993,220.24,103153846,1.270129680633545,0.23313909769058228,140.9875946044922,0.1933029443025589
4440062.728,1814,1658,634014963,220.25,103153888,1.2726292610168457,0.22712406516075134,142.24685668945312,0.19581525027751923
4440162.728,1814,1658,634014963,220.25,103153888,1.2784518003463745,0.2261057198047638,143.4673614501953,0.1920485496520996
4440262.728,1814,1658,634014933,220.25,103153929,1.2574354410171509,0.23233327269554138,144.66954040527344,0.18329201638698578
4440362.728,1814,1658,634014933,220.25,103153929,1.2725629806518555,0.2294994294643402,145.88787841796875,0.17944446206092834
4440462.728,1814,1658,634014901,220.26,103153965,1.2530320882797241,0.2334664911031723,147.11505126953125,0.18048322200775146
4440562.728,1814,1658,634014901,220.26,103153965,1.2998038530349731,0.20221932232379913,148.36666870117188,0.18559406697750092
4440662.728,1814,1658,634014868,220.26,103154000,1.218734860420227,0.20592428743839264,149.59056091308594,0.1866491138935089
4440762.728,1814,1658,634014868,220.26,103154000,1.2288962602615356,0.22311273217201233,150.86155700683594,0.18518075346946716
4440862.728,1814,1658,634014836,220.25,103154032,1.21950364112854,0.24350176751613617,152.13365173339844,0.18656402826309204
4440962.728,1814,1658,634014836,220.25,103154032,1.2874891757965088,0.261092871427536,153.4097900390625,0.18927466869354248
4441062.728,1815,1658,634014804,220.26,103154060,1.2656959295272827,0.21704453229904175,154.66464233398438,0.19087719917297363
4441162.728,1815,1658,634014804,220.26,103154060,1.2629753351211548,0.21640899777412415,155.9224395751953,0.18695560097694397
4441262.728,1815,1658,634014770,220.25,103154087,1.2597006559371948,0.18554483354091644,157.1351318359375,0.1844760775566101
4441362.728,1815,1658,634014770,220.25,103154087,1.2780975103378296,0.174420565366745,158.3461151123047,0.18237096071243286
4441462.728,1815,1658,634014737,220.27,103154110,1.2242062091827393,0.18150578439235687,159.57752990722656,0.183860182762146
4441562.728,1815,1658,634014737,220.27,103154110,1.2754493951797485,0.24424424767494202,160.8175506591797,0.1867571473121643
4441662.728,1815,1658,634014703,220.27,103154130,1.222442626953125,0.26181352138519287,162.0748291015625,0.18911094963550568
4441762.728,1815,1658,634014703,220.27,103154130,1.2991995811462402,0.2148985117673874,163.29774475097656,0.18760156631469727
4441862.728,1815,1658,634014669,220.29,103154147,1.2433159351348877,0.21110916137695312,164.51968383789062,0.18513891100883484
4441962.728,1815,1658,634014669,220.29,103154147,1.238724708557129,0.21418149769306183,165.74761962890625,0.1847333312034607
4442062.728,1815,1658,634014634,220.28,103154161,1.2235273122787476,0.23428376019001007,166.98915100097656,0.1873723715543747
4442162.728,1815,1658,634014634,220.28,103154161,1.2833032608032227,0.12881726026535034,168.2061004638672,0.1877475380897522
4442262.728,1815,1658,634014599,220.29,103154173,1.2118351459503174,0.16107094287872314,169.41529846191406,0.18280401825904846
4442362.728,1815,1658,634014599,220.29,103154173,1.2555656433105469,0.19239389896392822,170.62692260742188,0.1803787648677826
4442462.728,1815,1658,634014565,220.3,103154183,1.2754474878311157,0.1996663212776184,171.8575439453125,0.18437683582305908
4442562.728,1815,1658,634014565,220.3,103154183,1.2588410377502441,0.20074160397052765,173.07968139648438,0.1856028139591217
4442662.728,1815,1658,634014530,220.3,103154189,1.264599323272705,0.22294160723686218,174.28668212890625,0.1837761104106903
4442762.728,1815,1658,634014530,220.3,103154189,1.2678757905960083,0.24096685647964478,175.49908447265625,0.18651187419891357
4442862.728,1815,1658,634014494,220.31,103154192,1.2394640445709229,0.22580008208751678,176.7042999267578,0.18709708750247955
4442962.728,1815,1658,634014494,220.31,103154192,1.2573318481445312,0.16541787981987,177.8843536376953,0.18316641449928284
4443062.728,1815,1658,634014461,220.29,103154192,1.285299301147461,0.11072089523077011,179.06143188476562,0.1811143159866333
4443162.728,1815,1658,634014461,220.29,103154192,1.234320878982544,0.2125215232372284,180.26417541503906,0.18068328499794006
4443262.728,1816,1658,634014426,220.31,103154190,1.272642970085144,0.251379132270813,181.47923278808594,0.18520233035087585
4443362.728,1816,1658,634014426,220.31,103154190,1.2045841217041016,0.26808905601501465,182.68333435058594,0.18668250739574432
4443462.728,1816,1658,634014391,220.31,103154185,1.2699744701385498,0.21746481955051422,183.9076385498047,0.18513190746307373
4443562.728,1816,1658,634014391,220.31,103154185,1.2576093673706055,0.22999273240566254,185.1103057861328,0.184207946062088
4443662.728,1816,1658,634014356,220.32,103154177,1.3001478910446167,0.15733852982521057,186.29237365722656,0.1813569962978363
4443762.728,1816,1658,634014356,220.32,103154177,1.2232885360717773,0.18013527989387512,187.50234985351562,0.1801140010356903
4443862.728,1816,1660,634014322,220.33,103154167,1.246530294418335,0.2435835599899292,188.7353973388672,0.18588532507419586
4443962.728,1816,1660,634014322,220.33,103154167,1.297000527381897,0.23022031784057617,189.92889404296875,0.1883661150932312
4444062.728,1816,1660,634014289,220.33,103154155,1.2428301572799683,0.22002781927585602,191.1188507080078,0.18486763536930084
4444162.728,1816,1660,634014289,220.33,103154155,1.27170729637146,0.20764094591140747,192.31033325195312,0.18353863060474396
4444262.728,1816,1662,634014255,220.34,103154138,1.252197027206421,0.2394041270017624,193.49713134765625,0.18315905332565308
4444362.728,1816,1664,634014255,220.34,103154138,1.2729291915893555,0.13953594863414764,194.6763153076172,0.18584522604942322
4444462.728,1816,1665,634014221,220.36,103154119,1.265648603439331,0.1838298887014389,195.83920288085938,0.18067234754562378
4444562.728,1816,1665,634014221,220.36,103154119,1.2530298233032227,0.1663094311952591,196.98703002929688,0.17770831286907196
4444662.728,1817,1665,634014188,220.36,103154096,1.206254482269287,0.17636650800704956,198.1471405029297,0.1790798157453537
4444762.728,1817,1665,634014188,220.36,103154096,1.2559587955474854,0.2430848777294159,199.33668518066406,0.18480974435806274
4444862.728,1817,1665,634014155,220.38,103154072,1.2666581869125366,0.18762150406837463,200.51632690429688,0.18366974592208862
4444962.728,1817,1665,634014155,220.38,103154072,1.2549433708190918,0.19643090665340424,201.70823669433594,0.18216928839683533
4445062.728,1818,1665,634014123,220.37,103154045,1.2710474729537964,0.21633072197437286,202.8807373046875,0.18600720167160034
4445162.728,1818,1665,634014123,220.37,103154045,1.2658193111419678,0.18881605565547943,204.0010223388672,0.18226875364780426
4445262.728,1818,1665,634014091,220.38,103154015,1.2295427322387695,0.16146954894065857,205.13644409179688,0.1763000190258026
4445362.728,1818,1665,634014091,220.38,103154015,1.2788105010986328,0.16279660165309906,206.28506469726562,0.17973263561725616
4445462.728,1818,1666,634014060,220.39,103153982,1.246976375579834,0.21458598971366882,207.43507385253906,0.17896875739097595
4445562.728,1818,1666,634014060,220.39,103153982,1.2334662675857544,0.2041388750076294,208.5757598876953,0.18039290606975555
4445662.728,1820,1667,634014030,220.4,103153947,1.2634391784667969,0.18269819021224976,209.70408630371094,0.18090826272964478
4445762.728,1820,1670,634014030,220.4,103153947,1.2669774293899536,0.1856515258550644,210.8271942138672,0.17879684269428253
4445862.728,1820,1670,634014000,220.41,103153909,1.271135687828064,0.2180885672569275,211.94248962402344,0.17625969648361206
4445962.728,1821,1670,634014000,220.41,103153909,1.2264292240142822,0.15748021006584167,213.05674743652344,0.17900538444519043
4446062.728,1822,1671,634013971,220.41,103153870,1.2435622215270996,0.13732779026031494,214.18179321289062,0.17718416452407837
4446162.728,1824,1671,634013971,220.41,103153870,1.2565910816192627,0.18375267088413239,215.33154296875,0.1784776747226715
4446262.728,1825,1671,634013941,220.4,103153829,1.2227187156677246,0.24802707135677338,216.531005859375,0.18432942032814026
4446362.728,1826,1671,634013941,220.4,103153829,1.3046238422393799,0.24441763758659363,217.6953125,0.18623508512973785
4446462.728,1826,1672,634013913,220.39,103153785,1.2324501276016235,0.19731798768043518,218.84031677246094,0.18572044372558594
4446562.728,1827,1672,634013913,220.39,103153785,1.2708740234375,0.23592665791511536,219.99411010742188,0.18601611256599426
4446662.728,1827,1674,634013887,220.38,103153737,1.2666682004928589,0.17870894074440002,221.12994384765625,0.18484650552272797
4446762.728,1827,1674,634013887,220.38,103153737,1.2914111614227295,0.14843636751174927,222.2500762939453,0.17910988628864288
4446862.728,1827,1675,634013860,220.38,103153689,1.277022361755371,0.18478702008724213,223.3927459716797,0.1787843555212021
4446962.728,1827,1675,634013860,220.38,103153689,1.2985773086547852,0.188251793384552,224.50294494628906,0.1793805956840515
4447062.728,1827,1675,634013834,220.37,103153637,1.2373476028442383,0.15509605407714844,225.56455993652344,0.17730927467346191
4447162.728,1827,1676,634013834,220.37,103153637,1.1990236043930054,0.22703784704208374,226.6436767578125,0.17486359179019928
4447262.728,1827,1676,634013809,220.37,103153585,1.26762056350708,0.17676720023155212,227.72866821289062,0.17787960171699524
4447362.728,1827,1676,634013809,220.37,103153585,1.2072341442108154,0.20038604736328125,228.81552124023438,0.17797619104385376
4447462.728,1829,1676,634013784,220.36,103153531,1.274958848953247,0.17807362973690033,229.91822814941406,0.17719581723213196
4447562.728,1831,1676,634013784,220.36,103153531,1.218761920928955,0.19482861459255219,231.03262329101562,0.17999807000160217
4447662.728,1833,1677,634013761,220.36,103153473,1.2875341176986694,0.21879124641418457,232.1332244873047,0.1831706166267395
4447762.728,1834,1678,634013761,220.36,103153473,1.2535347938537598,0.20767784118652344,233.20315551757812,0.17971965670585632
4447862.728,1836,1678,634013739,220.35,103153414,1.246130108833313,0.20183712244033813,234.28924560546875,0.17846113443374634
4447962.728,1837,1678,634013739,220.35,103153414,1.277097225189209,0.1955239176750183,235.36959838867188,0.1804881989955902
4448062.728,1837,1678,634013718,220.36,103153354,1.2597057819366455,0.1798318326473236,236.43695068359375,0.1786263883113861
4448162.728,1837,1679,634013718,220.36,103153354,1.2812741994857788,0.17156942188739777,237.5064697265625,0.17848573625087738
4448262.728,1838,1679,634013699,220.36,103153292,1.2432942390441895,0.2114148736000061,238.57778930664062,0.1794896423816681
4448362.728,1838,1680,634013699,220.36,103153292,1.278908133506775,0.2176591455936432,239.64645385742188,0.17838630080223083
4448462.728,1838,1680,634013679,220.37,103153228,1.2470791339874268,0.12088029086589813,240.7051239013672,0.17888663709163666
4448562.728,1838,1681,634013679,220.37,103153228,1.2474051713943481,0.17120812833309174,241.76992797851562,0.17758654057979584
4448662.728,1838,1681,634013661,220.36,103153163,1.2420912981033325,0.14251844584941864,242.8411865234375,0.17679712176322937
4448762.728,1838,1682,634013661,220.36,103153163,1.2391859292984009,0.16117364168167114,243.92776489257812,0.1767038106918335
4448862.728,1838,1682,634013644,220.36,103153094,1.271068811416626,0.2665993571281433,245.02777099609375,0.1808306872844696
4448962.728,1838,1683,634013644,220.36,103153094,1.2506816387176514,0.17364677786827087,246.07907104492188,0.18297092616558075
4449062.728,1838,1683,634013628,220.35,103153026,1.2139779329299927,0.19627182185649872,247.12408447265625,0.17970211803913116
4449162.728,1838,1686,634013628,220.35,103153026,1.2618805170059204,0.20178163051605225,248.18414306640625,0.17842762172222137
4449262.728,1838,1687,634013614,220.36,103152956,1.2256863117218018,0.1832423359155655,249.24607849121094,0.17881159484386444
