timestamp(ms),RCIN.C1,RCIN.C3,GPS.Lat,GPS.Alt,GPS.Lng,IMU.AccX,IMU.AccY,DCM.Yaw,IMU.GyrZ
3054082.735,1475,1488,634014699,218.84,103148997,0.02736448496580124,-0.16401629149913788,69.57414245605469,0.001762016792781651
3054182.735,1475,1488,634014699,218.84,103148997,0.03373817354440689,-0.16676054894924164,69.56865692138672,0.0029307915829122066
3054282.735,1475,1488,634014700,218.84,103148994,0.028844283893704414,-0.16441236436367035,69.56639862060547,0.003345114877447486
3054382.735,1475,1488,634014700,218.84,103148994,0.033234309405088425,-0.1679064929485321,69.5728759765625,0.003192303469404578
3054482.735,1475,1488,634014699,218.83,103148991,0.03798871487379074,-0.16316133737564087,69.58230590820312,0.0023079137317836285
3054582.735,1475,1488,634014699,218.83,103148991,0.03804469853639603,-0.17015595734119415,69.57947540283203,0.002097012707963586
3054682.735,1475,1488,634014699,218.83,103148989,0.028981924057006836,-0.1659945547580719,69.57289123535156,0.0014215284027159214
3054782.735,1475,1488,634014699,218.83,103148989,0.026828767731785774,-0.17021504044532776,69.58193969726562,0.00207016640342772
3054882.735,1475,1488,634014699,218.83,103148986,0.030354034155607224,-0.16559872031211853,69.59894561767578,0.002408732194453478
3054982.735,1475,1488,634014699,218.83,103148986,0.028329946100711823,-0.1715317964553833,69.60678100585938,0.002791569335386157
3055082.735,1475,1488,634014699,218.83,103148983,0.0333033949136734,-0.17098453640937805,69.61050415039062,0.00251467595808208
3055182.735,1475,1488,634014699,218.83,103148983,0.0343342050909996,-0.1694197952747345,69.60404968261719,0.002169637242332101
3055282.735,1475,1488,634014699,218.83,103148981,0.03319478780031204,-0.1643497347831726,69.59674072265625,0.001705056056380272
3055382.735,1475,1488,634014699,218.83,103148981,0.026294633746147156,-0.1675831377506256,69.60565185546875,0.0011019299272447824
3055482.735,1475,1488,634014698,218.83,103148978,0.02753698080778122,-0.16800761222839355,69.63592529296875,0.001330772996880114
3055582.735,1475,1488,634014698,218.83,103148978,0.031046371906995773,-0.16654053330421448,69.66336059570312,0.0016391699900850654
3055682.735,1475,1488,634014698,218.83,103148975,0.028409145772457123,-0.1665344536304474,69.65811920166016,0.0023010773584246635
3055782.735,1475,1488,634014698,218.83,103148975,0.030667036771774292,-0.1593194156885147,69.65802001953125,0.001959735294803977
3055882.735,1475,1488,634014697,218.83,103148973,0.037335868924856186,-0.16458898782730103,69.61827087402344,0.0014256343711167574
3055982.735,1475,1488,634014697,218.83,103148973,0.03265579044818878,-0.1694042980670929,69.59739685058594,0.0007973490282893181
3056082.735,1475,1488,634014697,218.83,103148971,0.031591787934303284,-0.1680537313222885,69.57791137695312,0.0006475868867710233
3056182.735,1475,1488,634014697,218.83,103148971,0.024577373638749123,-0.17189347743988037,69.56340026855469,0.0010388107039034367
3056282.735,1475,1488,634014696,218.83,103148969,0.035214051604270935,-0.17183169722557068,69.5538330078125,0.00158123136498034
3056382.735,1475,1488,634014696,218.83,103148969,0.02792191132903099,-0.16036486625671387,69.56781768798828,0.0016771003138273954
3056482.735,1475,1488,634014695,218.84,103148967,0.03467267006635666,-0.1689804196357727,69.56914520263672,0.0015105055645108223
3056582.735,1475,1488,634014695,218.84,103148967,0.02836412936449051,-0.1557854562997818,69.5421371459961,0.0007822960615158081
3056682.735,1475,1488,634014694,218.84,103148965,0.03091931901872158,-0.166476309299469,69.52618408203125,0.0007716548279859126
3056782.735,1475,1488,634014694,218.84,103148965,0.030303973704576492,-0.1705978959798813,69.52558135986328,0.0005254083080217242
3056882.735,1475,1488,634014693,218.85,103148963,0.03740423172712326,-0.1716180294752121,69.5208969116211,0.0002559804997872561
3056982.735,1475,1488,634014693,218.85,103148963,0.029320700094103813,-0.16516996920108795,69.53053283691406,0.0005936408997513354
3057082.735,1475,1488,634014692,218.85,103148960,0.028180163353681564,-0.1661480963230133,69.57169342041016,0.0013042644131928682
3057182.735,1475,1488,634014692,218.85,103148960,0.040360577404499054,-0.16717934608459473,69.59320068359375,0.0017033370677381754
3057282.735,1475,1488,634014692,218.87,103148959,0.02868811786174774,-0.1625647097826004,69.62535858154297,0.0009968364611268044
3057382.735,1475,1488,634014692,218.87,103148959,0.028530310839414597,-0.16426800191402435,69.67579650878906,0.0005113990046083927
3057482.735,1475,1488,634014691,218.88,103148957,0.02722635492682457,-0.17079582810401917,69.67704772949219,0.00003172687138430774
3057582.735,1475,1488,634014691,218.88,103148957,0.024780994281172752,-0.16755709052085876,69.68711853027344,0.00015469262143597007
3057682.735,1475,1488,634014691,218.89,103148955,0.028389351442456245,-0.1661459058523178,69.71205139160156,0.0012752814218401909
3057782.735,1475,1488,634014691,218.89,103148955,0.02685895562171936,-0.16754518449306488,69.72171020507812,0.0012692861491814256
3057882.735,1475,1488,634014690,218.9,103148953,0.031767044216394424,-0.16900716722011566,69.70313262939453,0.001051774830557406
3057982.735,1475,1488,634014690,218.9,103148953,0.02919858694076538,-0.16670969128608704,69.71845245361328,0.00031917417072691023
3058082.735,1475,1488,634014690,218.9,103148950,0.0340518057346344,-0.16134795546531677,69.73341369628906,-0.0002213170810136944
3058182.735,1475,1488,634014690,218.9,103148950,0.033454909920692444,-0.16137877106666565,69.71540832519531,0.000138944509672001
3058282.735,1475,1488,634014689,218.91,103148948,0.02514771744608879,-0.16673004627227783,69.70270538330078,0.0006096953293308616
3058382.735,1475,1488,634014689,218.91,103148948,0.031825244426727295,-0.16715015470981598,69.6877212524414,0.0006574325961992145
3058482.735,1475,1488,634014688,218.91,103148946,0.019648028537631035,-0.1678527295589447,69.67720794677734,0.000562715926207602
3058582.735,1475,1488,634014688,218.91,103148946,0.02023928239941597,-0.16448266804218292,69.67815399169922,0.0008454825729131699
3058682.735,1475,1488,634014688,218.92,103148944,0.02914436347782612,-0.16493956744670868,69.66498565673828,0.0007775068515911698
3058782.735,1475,1488,634014688,218.92,103148944,0.03423188999295235,-0.16803215444087982,69.67412567138672,0.00026618436095304787
3058882.735,1475,1488,634014688,218.93,103148942,0.03236725926399231,-0.16715112328529358,69.67744445800781,-0.00046312337508425117
3058982.735,1475,1488,634014688,218.93,103148942,0.027725480496883392,-0.1616426706314087,69.68075561523438,-0.0003139176988042891
3059082.735,1475,1488,634014687,218.93,103148940,0.03091256693005562,-0.1647767722606659,69.67681884765625,0.0005726113449782133
3059182.735,1475,1488,634014687,218.93,103148940,0.033746685832738876,-0.16268719732761383,69.68989562988281,0.0006853927625343204
3059282.735,1475,1488,634014687,218.94,103148938,0.035684116184711456,-0.16934946179389954,69.68743896484375,0.0004310541262384504
3059382.735,1475,1488,634014687,218.94,103148938,0.030063951388001442,-0.1665828675031662,69.66209411621094,-0.00010139462392544374
3059482.735,1475,1488,634014687,218.95,103148937,0.02841539867222309,-0.1587914675474167,69.6417236328125,-0.00022983689268585294
3059582.735,1475,1488,634014687,218.95,103148937,0.03257129341363907,-0.16197824478149414,69.60760498046875,0.00009785501606529579
3059682.735,1475,1488,634014687,218.95,103148935,0.025752417743206024,-0.16722331941127777,69.57935333251953,0.00019514362793415785
3059782.735,1475,1488,634014687,218.95,103148935,0.03381148725748062,-0.16515547037124634,69.58206176757812,0.0005587629275396466
3059882.735,1475,1488,634014687,218.97,103148933,0.02992403320968151,-0.1729535460472107,69.55691528320312,0.00038322596810758114
3059982.735,1475,1488,634014687,218.97,103148933,0.031008968129754066,-0.1657772958278656,69.56876373291016,0.00013213914644438773
3060082.735,1475,1488,634014687,218.97,103148931,0.03273617476224899,-0.16179674863815308,69.5378646850586,0.000049426314944867045
3060182.735,1475,1488,634014687,218.97,103148931,0.029598815366625786,-0.16969716548919678,69.52861785888672,-0.00013938400661572814
3060282.735,1475,1488,634014686,218.98,103148930,0.032353878021240234,-0.1654622107744217,69.51156616210938,0.00006436262628994882
3060382.735,1475,1488,634014686,218.98,103148930,0.029963916167616844,-0.16817419230937958,69.51651763916016,-0.00007793116674292833
3060482.735,1475,1488,634014686,218.99,103148928,0.027604365721344948,-0.166610449552536,69.49108123779297,0.0005293403519317508
3060582.735,1475,1488,634014686,218.99,103148928,0.03172191232442856,-0.16537906229496002,69.48524475097656,0.000430654821684584
3060682.735,1475,1488,634014686,219,103148926,0.036825038492679596,-0.16437336802482605,69.47947692871094,0.0001737947022775188
3060782.735,1475,1488,634014686,219,103148926,0.02902064099907875,-0.16972169280052185,69.46229553222656,-0.00013280508574098349
3060882.735,1475,1488,634014686,219.02,103148925,0.03138409182429314,-0.1642528623342514,69.44906616210938,-0.00037548397085629404
3060982.735,1475,1488,634014686,219.02,103148925,0.02503693476319313,-0.16745446622371674,69.45783996582031,0.00015410622290801257
3061082.735,1475,1488,634014686,219.03,103148923,0.028527280315756798,-0.16543450951576233,69.45967102050781,0.0002757716574706137
3061182.735,1475,1488,634014686,219.03,103148923,0.031094865873456,-0.17327171564102173,69.4483871459961,0.00038080630474723876
3061282.735,1475,1488,634014686,219.04,103148922,0.04012336954474449,-0.16303856670856476,69.4516372680664,0.00044862867798656225
3061382.735,1475,1488,634014686,219.04,103148922,0.028311217203736305,-0.16607052087783813,69.45677185058594,0.00006923824548721313
3061482.735,1475,1488,634014686,219.06,103148920,0.02760656177997589,-0.17062067985534668,69.45799255371094,0.0000859161009429954
3061582.735,1475,1488,634014686,219.06,103148920,0.025412658229470253,-0.17004159092903137,69.45755767822266,-0.0005165998009033501
3061682.735,1475,1488,634014686,219.07,103148919,0.024357540532946587,-0.1584583818912506,69.44544219970703,-0.00010341584857087582
3061782.735,1475,1488,634014686,219.07,103148919,0.02950347773730755,-0.16472291946411133,69.43701171875,0.000307469570543617
3061882.735,1475,1488,634014686,219.08,103148917,0.02959548309445381,-0.16804006695747375,69.42154693603516,0.0003768004826270044
3061982.735,1475,1488,634014686,219.08,103148917,0.03398529440164566,-0.17312955856323242,69.4019775390625,-0.00007096464105416089
3062082.735,1475,1488,634014686,219.1,103148916,0.03253142163157463,-0.1687026470899582,69.43860626220703,-0.00020108610624447465
3062182.735,1475,1488,634014686,219.1,103148916,0.029553283005952835,-0.16571830213069916,69.44539642333984,0.0001258869597222656
3062282.735,1475,1488,634014686,219.12,103148915,0.031181031838059425,-0.16625361144542694,69.4349594116211,0.00007103022653609514
3062382.735,1475,1488,634014686,219.12,103148915,0.02524159662425518,-0.16729068756103516,69.41077423095703,0.00007171569450292736
3062482.735,1475,1488,634014687,219.13,103148913,0.027389001101255417,-0.17257802188396454,69.39494323730469,0.00008519333641743287
3062582.735,1475,1488,634014687,219.13,103148913,0.027006488293409348,-0.1636604219675064,69.37576293945312,-0.0000034232748475915287
3062682.735,1475,1488,634014687,219.15,103148912,0.03004969283938408,-0.165415957570076,69.35069274902344,0.00013066617248114198
3062782.735,1475,1488,634014687,219.15,103148912,0.02773066610097885,-0.16747048497200012,69.34284973144531,0.000027874195438926108
3062882.735,1475,1488,634014687,219.16,103148910,0.03558363392949104,-0.1667928397655487,69.33538818359375,0.000021077989003970288
3062982.735,1475,1488,634014687,219.16,103148910,0.034222379326820374,-0.1687554270029068,69.36414337158203,-0.000019630428141681477
3063082.735,1475,1488,634014686,219.17,103148909,0.02846927009522915,-0.17128749191761017,69.38812255859375,-0.00009563339699525386
3063182.735,1475,1488,634014686,219.17,103148909,0.027798175811767578,-0.1651865392923355,69.38080596923828,0.00004927682311972603
3063282.735,1475,1488,634014687,219.19,103148907,0.025379693135619164,-0.1691545844078064,69.38265991210938,0.0003848067717626691
3063382.735,1475,1488,634014687,219.19,103148907,0.029852041974663734,-0.167308047413826,69.39363098144531,0.00009623773803468794
3063482.735,1475,1488,634014687,219.2,103148905,0.03392922505736351,-0.16850653290748596,69.37320709228516,-0.00031254737405106425
3063582.735,1475,1488,634014687,219.2,103148905,0.03009491041302681,-0.15904194116592407,69.3697738647461,-0.0005944287404417992
3063682.735,1475,1488,634014687,219.21,103148904,0.029688965529203415,-0.1635289490222931,69.35142517089844,-0.00041497929487377405
3063782.735,1475,1488,634014687,219.21,103148904,0.026747683063149452,-0.16242632269859314,69.34331512451172,-0.00016864862118382007
3063882.735,1475,1488,634014687,219.22,103148903,0.030732406303286552,-0.1677761971950531,69.29724884033203,0.000130721484310925
3063982.735,1475,1488,634014687,219.22,103148903,0.02926155924797058,-0.16681621968746185,69.29605865478516,-0.0001949506695382297
3064082.735,1475,1488,634014687,219.23,103148901,0.03205050528049469,-0.16132724285125732,69.30389404296875,0.00012325507123023272
3064182.735,1475,1488,634014687,219.23,103148901,0.035472236573696136,-0.1674608737230301,69.3094253540039,-0.00010913645382970572
3064282.735,1475,1488,634014687,219.25,103148899,0.027518004179000854,-0.17118805646896362,69.28893280029297,-0.00040118920151144266
3064382.735,1475,1488,634014687,219.25,103148899,0.027752777561545372,-0.16854779422283173,69.29137420654297,-0.0001710819051368162
3064482.735,1475,1488,634014687,219.25,103148898,0.02961537428200245,-0.16285695135593414,69.28031921386719,-0.0002597522106952965
3064582.735,1475,1488,634014687,219.25,103148898,0.03359248489141464,-0.16453056037425995,69.28265380859375,-0.000010251997082377784
3064682.735,1475,1488,634014686,219.25,103148895,0.036231040954589844,-0.16954806447029114,69.28752136230469,-0.00015695310139562935
3064782.735,1475,1488,634014686,219.25,103148895,0.030401121824979782,-0.1719546616077423,69.28488159179688,-0.0004476697649806738
3064882.735,1475,1488,634014686,219.25,103148893,0.02934204787015915,-0.16779398918151855,69.29847717285156,-0.0007310073124244809
3064982.735,1475,1488,634014686,219.25,103148893,0.02688421867787838,-0.15940849483013153,69.28673553466797,-0.0004836875305045396
3065082.735,1475,1488,634014686,219.25,103148892,0.0309921745210886,-0.16511696577072144,69.28218078613281,-0.0005368707934394479
3065182.735,1475,1488,634014686,219.25,103148892,0.03293183445930481,-0.1614997535943985,69.28106689453125,-0.0003761478001251817
3065282.735,1475,1488,634014685,219.25,103148889,0.040484990924596786,-0.16906766593456268,69.2744369506836,-0.0001576492504682392
3065382.735,1475,1488,634014685,219.25,103148889,0.031609855592250824,-0.16320528090000153,69.27332305908203,-0.0006065836641937494
3065482.735,1475,1488,634014685,219.26,103148888,0.02507348731160164,-0.16793741285800934,69.28067779541016,-0.0008204615442082286
3065582.735,1475,1488,634014685,219.26,103148888,0.019856931641697884,-0.17036721110343933,69.27415466308594,-0.0004605245776474476
3065682.735,1475,1488,634014684,219.26,103148885,0.030412781983613968,-0.16758787631988525,69.24950408935547,-0.0003339597024023533
3065782.735,1475,1488,634014684,219.26,103148885,0.03302106633782387,-0.17130574584007263,69.24880981445312,-0.0006686706328764558
3065882.735,1475,1488,634014684,219.26,103148884,0.033900659531354904,-0.16865940392017365,69.25077056884766,-0.0008271950064226985
3065982.735,1475,1488,634014684,219.26,103148884,0.030094251036643982,-0.16085705161094666,69.25128173828125,-0.0011106388410553336
3066082.735,1475,1488,634014684,219.26,103148882,0.027799926698207855,-0.16530373692512512,69.25322723388672,-0.0007239101105369627
3066182.735,1475,1488,634014684,219.26,103148882,0.03218134865164757,-0.16583339869976044,69.2384262084961,-0.00031270566978491843
3066282.735,1475,1488,634014683,219.26,103148879,0.03147527575492859,-0.16455195844173431,69.2327651977539,-0.0005646914360113442
3066382.735,1475,1488,634014683,219.26,103148879,0.03627962991595268,-0.1679527759552002,69.24765014648438,-0.0007586842402815819
3066482.735,1475,1488,634014683,219.26,103148878,0.031070999801158905,-0.16906008124351501,69.26483154296875,-0.0007704723975621164
3066582.735,1475,1488,634014683,219.26,103148878,0.034591104835271835,-0.17225894331932068,69.247802734375,-0.0007236000383272767
3066682.735,1475,1494,634014683,219.27,103148876,0.025563757866621017,-0.16780424118041992,69.21046447753906,-0.0006600654451176524
3066782.735,1475,1494,634014683,219.27,103148876,0.030458861961960793,-0.17036673426628113,69.18144226074219,-0.0011024090927094221
3066882.735,1475,1494,634014683,219.26,103148874,0.03083425760269165,-0.16542327404022217,69.18399810791016,-0.0008788983104750514
3066982.735,1475,1494,634014683,219.26,103148874,0.028240252286195755,-0.16773557662963867,69.16228485107422,-0.0005550260539166629
3067082.735,1475,1494,634014683,219.27,103148872,0.030984174460172653,-0.1642969250679016,69.13658905029297,-0.0005476081860251725
3067182.735,1475,1494,634014683,219.27,103148872,0.02992510050535202,-0.16906997561454773,69.1259536743164,-0.000407457904657349
3067282.735,1475,1494,634014682,219.27,103148869,0.031192760914564133,-0.16847975552082062,69.14470672607422,-0.0009690677979961038
3067382.735,1475,1494,634014682,219.27,103148869,0.029618961736559868,-0.17519502341747284,69.17262268066406,-0.0007983891991898417
3067482.735,1475,1494,634014682,219.26,103148867,0.028403477743268013,-0.17419679462909698,69.16525268554688,-0.0009246622212231159
3067582.735,1475,1494,634014682,219.26,103148867,0.0238018948584795,-0.16435030102729797,69.1671142578125,-0.0009603588259778917
3067682.735,1475,1494,634014682,219.27,103148866,0.02649666741490364,-0.16511328518390656,69.16535186767578,-0.0004890596610493958
3067782.735,1475,1494,634014682,219.27,103148866,0.027417827397584915,-0.16293270885944366,69.15921020507812,-0.0004485120880417526
3067882.735,1475,1494,634014681,219.28,103148864,0.030282892286777496,-0.1606578230857849,69.1376953125,-0.0005274942377582192
3067982.735,1475,1494,634014681,219.28,103148864,0.036132991313934326,-0.1631670892238617,69.11994171142578,-0.00047205312876030803
3068082.735,1475,1494,634014681,219.27,103148862,0.03367261216044426,-0.16917137801647186,69.10933685302734,-0.0007408089004456997
3068182.735,1475,1494,634014681,219.27,103148862,0.031150363385677338,-0.1754964292049408,69.1229019165039,-0.001131859957240522
3068282.735,1475,1494,634014681,219.27,103148859,0.01771281287074089,-0.1681634485721588,69.11030578613281,-0.0011043825652450323
3068382.735,1475,1494,634014681,219.27,103148859,0.030497733503580093,-0.16848134994506836,69.09071350097656,-0.0004448703257367015
3068482.735,1475,1494,634014681,219.27,103148857,0.028615254908800125,-0.1685718297958374,69.06359100341797,0.00010989875590894371
3068582.735,1475,1494,634014681,219.27,103148857,0.02677791193127632,-0.15994982421398163,69.03801727294922,0.000014138955521048047
3068682.735,1475,1494,634014680,219.28,103148855,0.03368949145078659,-0.16120818257331848,69.02743530273438,-0.00016248093743342906
3068782.735,1475,1494,634014680,219.28,103148855,0.03605397790670395,-0.16557526588439941,69.02244567871094,-0.0005229215021245182
3068882.735,1475,1494,634014680,219.27,103148854,0.027699949219822884,-0.17513877153396606,69.02970123291016,-0.000730101834051311
3068982.735,1475,1494,634014680,219.27,103148854,0.029476676136255264,-0.17624056339263916,69.03611755371094,-0.0005700170295313001
3069082.735,1475,1494,634014679,219.27,103148852,0.026686230674386024,-0.17164428532123566,69.03507232666016,-0.00031732814386487007
3069182.735,1475,1494,634014679,219.27,103148852,0.029335012659430504,-0.1618635654449463,69.04340362548828,0.00015838271065149456
3069282.735,1475,1494,634014679,219.27,103148850,0.022005198523402214,-0.1640481799840927,69.04814910888672,0.00033342873211950064
3069382.735,1475,1494,634014679,219.27,103148850,0.02593013271689415,-0.15585465729236603,69.05878448486328,0.00004848911703447811
3069482.735,1475,1494,634014679,219.27,103148848,0.03372873365879059,-0.16515961289405823,69.05390930175781,-0.00021515520347747952
3069582.735,1475,1494,634014679,219.27,103148848,0.0299665704369545,-0.1655636727809906,69.03640747070312,-0.0006346818991005421
3069682.735,1475,1494,634014678,219.27,103148846,0.03924008831381798,-0.1719433069229126,69.03124237060547,-0.000563659006729722
3069782.735,1475,1494,634014678,219.27,103148846,0.03269331157207489,-0.1703021377325058,69.03913879394531,-0.00007389775419142097
3069882.735,1475,1494,634014678,219.28,103148844,0.02707729861140251,-0.1673155426979065,69.03902435302734,0.00009359815157949924
3069982.735,1475,1494,634014678,219.28,103148844,0.025048047304153442,-0.1668238788843155,69.06822204589844,0.0004933633608743548
3070082.735,1475,1494,634014678,219.28,103148842,0.02886630967259407,-0.15844792127609253,69.07539367675781,0.00044845216325484216
3070182.735,1475,1494,634014678,219.28,103148842,0.02480991929769516,-0.16817396879196167,69.08891296386719,0.0004875530139543116
3070282.735,1475,1494,634014678,219.28,103148840,0.03493490070104599,-0.16173133254051208,69.05879211425781,0.0007242645369842649
3070382.735,1475,1494,634014678,219.28,103148840,0.03918769955635071,-0.17298761010169983,69.03964233398438,0.00001411486755387159
3070482.735,1475,1494,634014678,219.29,103148838,0.02814771793782711,-0.17387524247169495,69.0344467163086,-0.00012642069486901164
3070582.735,1475,1494,634014678,219.29,103148838,0.03185784071683884,-0.1686183512210846,69.0472183227539,0.00016803244943730533
3070682.735,1475,1494,634014677,219.28,103148836,0.023409400135278702,-0.1658235490322113,69.04296112060547,0.0007483332883566618
3070782.735,1475,1494,634014677,219.28,103148836,0.028641099110245705,-0.16317632794380188,69.0600357055664,0.000603541499003768
3070882.735,1475,1494,634014677,219.29,103148834,0.027854034677147865,-0.16777139902114868,69.08760833740234,0.0003643661621026695
3070982.735,1475,1494,634014677,219.29,103148834,0.032292965799570084,-0.1585870385169983,69.09300994873047,0.0005989525816403329
3071082.735,1475,1494,634014677,219.29,103148833,0.032185714691877365,-0.16035687923431396,69.10054016113281,0.0005324642406776547
3071182.735,1475,1494,634014677,219.29,103148833,0.029991390183568,-0.1691526472568512,69.08403015136719,-0.00004467895269044675
3071282.735,1475,1494,634014676,219.29,103148830,0.03378620371222496,-0.1672406941652298,69.10122680664062,0.00003653961175587028
3071382.735,1475,1494,634014676,219.29,103148830,0.02107231877744198,-0.16942378878593445,69.11587524414062,0.0005367539706639946
3071482.735,1475,1494,634014676,219.29,103148828,0.024042043834924698,-0.17131632566452026,69.14973449707031,0.001021447591483593
3071582.735,1475,1494,634014676,219.29,103148828,0.03560330718755722,-0.1681741178035736,69.20220947265625,0.001390768913552165
3071682.735,1475,1494,634014676,219.3,103148826,0.03769072890281677,-0.16540569067001343,69.21879577636719,0.0012263134121894836
3071782.735,1475,1494,634014676,219.3,103148826,0.03424371778964996,-0.16120178997516632,69.21552276611328,0.0009408894111402333
3071882.735,1475,1494,634014676,219.3,103148825,0.02552376687526703,-0.1634548306465149,69.22956085205078,0.000548906100448221
3071982.735,1475,1494,634014676,219.3,103148825,0.02308887615799904,-0.17002959549427032,69.2413558959961,0.000750236096791923
3072082.735,1475,1494,634014675,219.3,103148823,0.0256744883954525,-0.1683473140001297,69.2486572265625,0.0012428753543645144
3072182.735,1475,1494,634014675,219.3,103148823,0.027238180860877037,-0.16391324996948242,69.26276397705078,0.0012099237646907568
3072282.735,1475,1494,634014675,219.3,103148820,0.03187639266252518,-0.16265390813350677,69.26823425292969,0.0012914363760501146
3072382.735,1475,1494,634014675,219.3,103148820,0.031230974942445755,-0.1652470976114273,69.2800521850586,0.0015080703888088465
3072482.735,1475,1494,634014675,219.31,103148819,0.03289695084095001,-0.16862642765045166,69.30770111083984,0.0010562919778749347
3072582.735,1475,1494,634014675,219.31,103148819,0.035402052104473114,-0.16688565909862518,69.3266830444336,0.0008643140899948776
3072682.735,1475,1494,634014675,219.31,103148817,0.0291858222335577,-0.1656162142753601,69.32524108886719,0.0008948449976742268
3072782.735,1475,1494,634014675,219.31,103148817,0.02764960005879402,-0.17471614480018616,69.31453704833984,0.001191930379718542
3072882.735,1475,1494,634014675,219.32,103148815,0.027759181335568428,-0.16524827480316162,69.33905029296875,0.0013809199444949627
3072982.735,1475,1494,634014675,219.32,103148815,0.023393750190734863,-0.16973760724067688,69.38784790039062,0.002032800344750285
3073082.735,1475,1494,634014675,219.3,103148812,0.030670037493109703,-0.1622616946697235,69.40531921386719,0.002100451849400997
3073182.735,1475,1494,634014675,219.3,103148812,0.03592327982187271,-0.17262917757034302,69.43123626708984,0.001872926251962781
3073282.735,1475,1494,634014675,219.3,103148810,0.03628303110599518,-0.16413047909736633,69.47045135498047,0.0015833463985472918
3073382.735,1475,1494,634014675,219.3,103148810,0.030074529349803925,-0.1639086902141571,69.50033569335938,0.0011700220638886094
3073482.735,1475,1494,634014675,219.31,103148809,0.02977677434682846,-0.17147564888000488,69.53578186035156,0.0015925876796245575
3073582.735,1475,1494,634014675,219.31,103148809,0.02606339380145073,-0.16768509149551392,69.55460357666016,0.00183007656596601
3073682.735,1475,1494,634014674,219.3,103148806,0.029077839106321335,-0.1767471432685852,69.54337310791016,0.0022170571610331535
3073782.735,1475,1494,634014674,219.3,103148806,0.03297928720712662,-0.16722188889980316,69.55007934570312,0.0016600462840870023
3073882.735,1475,1494,634014674,219.3,103148804,0.029236922040581703,-0.17136463522911072,69.5497055053711,0.0018509345827624202
3073982.735,1475,1494,634014674,219.3,103148804,0.039626240730285645,-0.16806739568710327,69.56175994873047,0.0015709715662524104
3074082.735,1475,1494,634014673,219.3,103148802,0.03147073835134506,-0.1655322015285492,69.56175994873047,0.001948280376382172
3074182.735,1475,1494,634014673,219.3,103148802,0.03195960074663162,-0.16341817378997803,69.5513687133789,0.0020022031385451555
3074282.735,1475,1494,634014673,219.3,103148800,0.032235242426395416,-0.1667444109916687,69.57332611083984,0.0025441397447139025
3074382.735,1475,1494,634014673,219.3,103148800,0.028343964368104935,-0.1631617248058319,69.60891723632812,0.0025481160264462233
3074482.735,1475,1494,634014673,219.3,103148797,0.024961352348327637,-0.1645551323890686,69.61304473876953,0.002431333065032959
3074582.735,1475,1494,634014673,219.3,103148797,0.02341408282518387,-0.1667882651090622,69.61653137207031,0.0016680625267326832
3074682.735,1475,1494,634014673,219.3,103148795,0.02700752019882202,-0.17009225487709045,69.60282897949219,0.002108657732605934
3074782.735,1475,1494,634014673,219.3,103148795,0.031213875859975815,-0.1656624674797058,69.6091079711914,0.0023744083009660244
3074882.735,1475,1494,634014673,219.3,103148792,0.0389302596449852,-0.16822615265846252,69.63555908203125,0.002743520773947239
3074982.735,1475,1494,634014673,219.3,103148792,0.0305034089833498,-0.17095984518527985,69.62464904785156,0.002354538766667247
3075082.735,1475,1494,634014673,219.31,103148791,0.019362036138772964,-0.16148653626441956,69.66154479980469,0.0020620406139642
3075182.735,1475,1494,634014673,219.31,103148791,0.022108718752861023,-0.1552911400794983,69.68228149414062,0.0021606064401566982
3075282.735,1475,1494,634014672,219.31,103148788,0.025612834841012955,-0.15794363617897034,69.71127319335938,0.002431832253932953
3075382.735,1475,1494,634014672,219.31,103148788,0.03386186808347702,-0.16103670001029968,69.75935363769531,0.0031067421659827232
3075482.735,1475,1494,634014672,219.31,103148786,0.03837168216705322,-0.16384512186050415,69.78629302978516,0.0026400964707136154
3075582.735,1475,1494,634014672,219.31,103148786,0.04381076246500015,-0.17732280492782593,69.797119140625,0.0027816533111035824
3075682.735,1475,1494,634014672,219.31,103148784,0.037702739238739014,-0.17835330963134766,69.83418273925781,0.00280936760827899
3075782.735,1475,1494,634014672,219.31,103148784,0.027117742225527763,-0.16723006963729858,69.83480072021484,0.0023964587599039078
3075882.735,1475,1494,634014671,219.31,103148782,0.02358197420835495,-0.1650821715593338,69.82909393310547,0.0023420508950948715
3075982.735,1475,1494,634014671,219.31,103148782,0.018860595300793648,-0.15916971862316132,69.84740447998047,0.002758216578513384
3076082.735,1475,1494,634014671,219.31,103148780,0.024931272491812706,-0.15967921912670135,69.88253784179688,0.003259028773754835
3076182.735,1475,1494,634014671,219.31,103148780,0.03568647801876068,-0.16381151974201202,69.91691589355469,0.003158999141305685
3076282.735,1475,1494,634014671,219.32,103148778,0.03802482411265373,-0.1758926957845688,69.9141616821289,0.0028407294303178787
3076382.735,1475,1494,634014671,219.32,103148778,0.028216112405061722,-0.17825740575790405,69.96720886230469,0.0023795561864972115
3076482.735,1475,1494,634014671,219.33,103148777,0.029693348333239555,-0.16928322613239288,70.00077819824219,0.002038540318608284
3076582.735,1475,1494,634014671,219.33,103148777,0.026661457493901253,-0.15901771187782288,70.01811981201172,0.002329085487872362
3076682.735,1475,1494,634014671,219.35,103148775,0.03000069037079811,-0.15935572981834412,70.03776550292969,0.003177075646817684
3076782.735,1475,1494,634014671,219.35,103148775,0.036526843905448914,-0.16071303188800812,70.06814575195312,0.003915009088814259
3076882.735,1475,1494,634014670,219.34,103148773,0.03509882092475891,-0.1690691113471985,70.0781021118164,0.003315316280350089
3076982.735,1475,1494,634014670,219.34,103148773,0.03269702568650246,-0.17497707903385162,70.09896850585938,0.002542979083955288
3077082.735,1475,1494,634014670,219.36,103148772,0.025605516508221626,-0.17159149050712585,70.16278076171875,0.0016136656049638987
3077182.735,1475,1494,634014670,219.36,103148772,0.0265483595430851,-0.17479842901229858,70.17870330810547,0.002477153204381466
3077282.735,1475,1494,634014670,219.36,103148770,0.018087370321154594,-0.16204309463500977,70.20051574707031,0.003169872099533677
3077382.735,1475,1494,634014670,219.36,103148770,0.032734114676713943,-0.1620723307132721,70.2345962524414,0.0038552824407815933
3077482.735,1475,1494,634014669,219.37,103148769,0.033701151609420776,-0.1574939638376236,70.2650375366211,0.0038718413561582565
3077582.735,1475,1494,634014669,219.37,103148769,0.04220329970121384,-0.1649676412343979,70.2737045288086,0.00364722334779799
3077682.735,1475,1494,634014669,219.38,103148767,0.036021724343299866,-0.1687847524881363,70.3001480102539,0.0032241824083030224
3077782.735,1475,1494,634014669,219.38,103148767,0.030371785163879395,-0.1709151268005371,70.30748748779297,0.0027783866971731186
3077882.735,1475,1494,634014669,219.39,103148765,0.027342092245817184,-0.1695549339056015,70.31217956542969,0.002126158680766821
3077982.735,1475,1494,634014669,219.39,103148765,0.025276772677898407,-0.16243582963943481,70.32530212402344,0.002784480806440115
3078082.735,1475,1494,634014669,219.4,103148764,0.024695921689271927,-0.15940803289413452,70.36971282958984,0.003985622897744179
3078182.735,1475,1494,634014669,219.4,103148764,0.035563237965106964,-0.16281110048294067,70.40524291992188,0.004226182587444782
3078282.735,1475,1494,634014668,219.4,103148762,0.048491284251213074,-0.17523160576820374,70.42012786865234,0.0036880846600979567
3078382.735,1475,1494,634014668,219.4,103148762,0.040774114429950714,-0.17862272262573242,70.45249938964844,0.0026977527886629105
3078482.735,1475,1494,634014668,219.41,103148760,0.025383304804563522,-0.17262296378612518,70.45570373535156,0.0018224171362817287
3078582.735,1475,1494,634014668,219.41,103148760,0.018186872825026512,-0.1637199968099594,70.49652099609375,0.0025358633138239384
3078682.735,1475,1494,634014668,219.41,103148758,0.023785091936588287,-0.161533385515213,70.51246643066406,0.003778664628043771
3078782.735,1475,1494,634014668,219.41,103148758,0.024171501398086548,-0.1683506965637207,70.54035949707031,0.0047591133043169975
3078882.735,1475,1494,634014667,219.41,103148757,0.038587432354688644,-0.1694742888212204,70.5641098022461,0.004711871966719627
3078982.735,1475,1494,634014667,219.41,103148757,0.043770432472229004,-0.17465518414974213,70.5891342163086,0.0039204866625368595
3079082.735,1475,1494,634014667,219.42,103148755,0.03250255435705185,-0.17269164323806763,70.64376831054688,0.0029522008262574673
3079182.735,1475,1494,634014667,219.42,103148755,0.02839796431362629,-0.1782744824886322,70.67681121826172,0.0025372703094035387
3079282.735,1475,1494,634014666,219.43,103148753,0.027331046760082245,-0.15884697437286377,70.68338012695312,0.002783132717013359
3079382.735,1475,1494,634014666,219.43,103148753,0.017047198489308357,-0.15759815275669098,70.7166748046875,0.0035909260623157024
3079482.735,1475,1494,634014665,219.43,103148751,0.02662023901939392,-0.1503893882036209,70.73302459716797,0.004344576969742775
3079582.735,1475,1494,634014665,219.43,103148751,0.04269429296255112,-0.1640074998140335,70.7586669921875,0.004263573791831732
3079682.735,1475,1494,634014665,219.43,103148749,0.04334248602390289,-0.16897745430469513,70.7613754272461,0.004168870858848095
3079782.735,1475,1494,634014665,219.43,103148749,0.032237906008958817,-0.18348050117492676,70.79815673828125,0.002976256888359785
3079882.735,1475,1494,634014664,219.44,103148747,0.028588127344846725,-0.1758769005537033,70.8023910522461,0.00241133663803339
3079982.735,1475,1494,634014664,219.44,103148747,0.017612772062420845,-0.1681031733751297,70.83812713623047,0.003474072553217411
3080082.735,1475,1494,634014664,219.45,103148746,0.020676247775554657,-0.16323789954185486,70.9044418334961,0.004660620354115963
3080182.735,1475,1494,634014664,219.45,103148746,0.03304991498589516,-0.15563631057739258,70.94666290283203,0.005205826833844185
3080282.735,1475,1494,634014663,219.45,103148744,0.03908216580748558,-0.16447974741458893,70.97862243652344,0.004743673838675022
3080382.735,1475,1494,634014663,219.45,103148744,0.037134476006031036,-0.16521379351615906,71.01219940185547,0.0035658988635987043
3080482.735,1475,1494,634014662,219.45,103148742,0.029137197881937027,-0.1721758097410202,71.07075500488281,0.0024826833978295326
3080582.735,1475,1494,634014662,219.45,103148742,0.030233753845095634,-0.16790005564689636,71.12178802490234,0.0030249988194555044
3080682.735,1475,1494,634014662,219.46,103148741,0.020506910979747772,-0.1741272658109665,71.16120147705078,0.0036820119712501764
3080782.735,1475,1494,634014662,219.46,103148741,0.03212157264351845,-0.15934884548187256,71.20577239990234,0.004130850546061993
3080882.735,1475,1494,634014661,219.46,103148738,0.030334632843732834,-0.16631098091602325,71.26302337646484,0.004354543052613735
3080982.735,1475,1494,634014661,219.46,103148738,0.03465363010764122,-0.16565681993961334,71.30475616455078,0.004022605251520872
3081082.735,1475,1494,634014660,219.47,103148737,0.03924521058797836,-0.16681651771068573,71.34024047851562,0.003821766469627619
3081182.735,1475,1494,634014660,219.47,103148737,0.026084432378411293,-0.1666325330734253,71.36909484863281,0.003308634040877223
3081282.735,1475,1494,634014659,219.47,103148735,0.021463967859745026,-0.1652306765317917,71.3591079711914,0.003315043170005083
3081382.735,1475,1494,634014659,219.47,103148735,0.02649516984820366,-0.1704259067773819,71.3759536743164,0.004155691247433424
3081482.735,1475,1494,634014659,219.48,103148733,0.022969745099544525,-0.1664039045572281,71.42999267578125,0.004630778916180134
3081582.735,1475,1494,634014659,219.48,103148733,0.034914784133434296,-0.17361244559288025,71.48054504394531,0.004705145955085754
3081682.735,1475,1494,634014658,219.48,103148731,0.03495335951447487,-0.17536328732967377,71.50650787353516,0.004395890515297651
3081782.735,1475,1494,634014658,219.48,103148731,0.03717436268925667,-0.17354336380958557,71.54444885253906,0.0035244165919721127
3081882.735,1475,1494,634014657,219.49,103148729,0.03072914108633995,-0.16336393356323242,71.6048812866211,0.003460709936916828
3081982.735,1475,1494,634014657,219.49,103148729,0.0225385669618845,-0.15825240314006805,71.62670135498047,0.003947085700929165
3082082.735,1475,1494,634014657,219.5,103148728,0.03351684287190437,-0.1612510234117508,71.65770721435547,0.004431700333952904
3082182.735,1475,1494,634014657,219.5,103148728,0.029399020597338676,-0.16607898473739624,71.6797103881836,0.004627122078090906
3082282.735,1475,1494,634014656,219.5,103148726,0.02936575561761856,-0.17602330446243286,71.67146301269531,0.004136081784963608
3082382.735,1475,1494,634014656,219.5,103148726,0.02652583085000515,-0.17210139334201813,71.7093505859375,0.003729149466380477
3082482.735,1475,1494,634014656,219.51,103148725,0.03015141747891903,-0.16942369937896729,71.7224349975586,0.003930666949599981
3082582.735,1475,1494,634014656,219.51,103148725,0.02897854894399643,-0.1681976169347763,71.73897552490234,0.004112897906452417
3082682.735,1475,1494,634014655,219.52,103148723,0.03676734119653702,-0.1762978583574295,71.7518539428711,0.004110041540116072
3082782.735,1475,1494,634014655,219.52,103148723,0.029068682342767715,-0.1668357104063034,71.76585388183594,0.004167662002146244
3082882.735,1475,1494,634014655,219.53,103148722,0.03263552114367485,-0.16278210282325745,71.79940795898438,0.004289184231311083
3082982.735,1475,1494,634014655,219.53,103148722,0.02669001929461956,-0.1676737666130066,71.81874084472656,0.003931274171918631
3083082.735,1475,1494,634014654,219.53,103148720,0.020838506519794464,-0.15802109241485596,71.87019348144531,0.004213969223201275
3083182.735,1475,1494,634014654,219.53,103148720,0.028065809980034828,-0.16145221889019012,71.89424133300781,0.004513238091021776
3083282.735,1475,1494,634014654,219.54,103148718,0.03191832825541496,-0.17187410593032837,71.93861389160156,0.004432009998708963
3083382.735,1475,1494,634014654,219.54,103148718,0.032831840217113495,-0.17117850482463837,71.98269653320312,0.004391919355839491
3083482.735,1475,1494,634014653,219.54,103148717,0.03198092430830002,-0.17970867455005646,72.01842498779297,0.004194409120827913
3083582.735,1475,1494,634014653,219.54,103148717,0.029014751315116882,-0.16970792412757874,72.06339263916016,0.00404002983123064
3083682.735,1475,1494,634014653,219.54,103148715,0.02523103356361389,-0.16117845475673676,72.10700988769531,0.0042713540606200695
3083782.735,1475,1494,634014653,219.54,103148715,0.02647697925567627,-0.1592373549938202,72.13639068603516,0.004454002715647221
3083882.735,1475,1494,634014653,219.54,103148713,0.03589523583650589,-0.16400405764579773,72.18445587158203,0.005329506937414408
3083982.735,1475,1494,634014653,219.54,103148713,0.03934386372566223,-0.16428767144680023,72.21955108642578,0.00501388730481267
3084082.735,1475,1494,634014652,219.55,103148712,0.034865982830524445,-0.1754864603281021,72.25282287597656,0.0045633637346327305
3084182.735,1475,1494,634014652,219.55,103148712,0.028894398361444473,-0.17486438155174255,72.28437042236328,0.004333581309765577
3084282.735,1475,1494,634014652,219.55,103148710,0.01769835874438286,-0.1693333387374878,72.31190490722656,0.004346881061792374
3084382.735,1475,1494,634014652,219.55,103148710,0.018650945276021957,-0.1578543782234192,72.33319854736328,0.004871576093137264
3084482.735,1475,1494,634014652,219.55,103148709,0.028609614819288254,-0.1621439903974533,72.3631591796875,0.005350035615265369
3084582.735,1475,1494,634014652,219.55,103148709,0.0365532711148262,-0.16548925638198853,72.38231658935547,0.004963680636137724
3084682.735,1475,1494,634014651,219.56,103148707,0.03972506523132324,-0.17215833067893982,72.410888671875,0.004314315505325794
3084782.735,1475,1494,634014651,219.56,103148707,0.02839261293411255,-0.16882117092609406,72.45231628417969,0.004170401953160763
3084882.735,1475,1494,634014651,219.55,103148704,0.018100790679454803,-0.1632481813430786,72.50190734863281,0.00404404429718852
3084982.735,1475,1494,634014651,219.55,103148704,0.018253576010465622,-0.16535869240760803,72.58399200439453,0.004870690405368805
3085082.735,1475,1494,634014650,219.56,103148703,0.035608403384685516,-0.15745167434215546,72.67674255371094,0.005493700038641691
3085182.735,1475,1494,634014650,219.56,103148703,0.036858104169368744,-0.17120049893856049,72.7287826538086,0.005679124966263771
3085282.735,1475,1494,634014650,219.56,103148702,0.03562428057193756,-0.17354266345500946,72.76985931396484,0.005138554144650698
3085382.735,1475,1494,634014650,219.56,103148702,0.037173159420490265,-0.17698445916175842,72.81169891357422,0.004329336807131767
3085482.735,1475,1494,634014649,219.57,103148700,0.02326819859445095,-0.17022591829299927,72.84441375732422,0.0044302260503172874
3085582.735,1475,1494,634014649,219.57,103148700,0.01572377048432827,-0.16199614107608795,72.8852767944336,0.0052123283967375755
3085682.735,1475,1494,634014649,219.57,103148698,0.021808825433254242,-0.15829452872276306,72.94739532470703,0.0057390425354242325
3085782.735,1475,1494,634014649,219.57,103148698,0.03481043875217438,-0.16657869517803192,72.98922729492188,0.00607289420440793
3085882.735,1475,1494,634014649,219.57,103148697,0.03497703745961189,-0.16985085606575012,73.04911804199219,0.005645748693495989
3085982.735,1475,1494,634014649,219.57,103148697,0.029768550768494606,-0.17326043546199799,73.10460662841797,0.00476152403280139
3086082.735,1475,1494,634014648,219.57,103148695,0.03323452174663544,-0.16906104981899261,73.10651397705078,0.004404246807098389
3086182.735,1475,1494,634014648,219.57,103148695,0.021802909672260284,-0.15160112082958221,73.13034057617188,0.004884024150669575
3086282.735,1475,1494,634014648,219.58,103148694,0.021302973851561546,-0.15386538207530975,73.1611557006836,0.0056493328884243965
3086382.735,1475,1494,634014648,219.58,103148694,0.02610039710998535,-0.16219063103199005,73.17639923095703,0.0063782790675759315
3086482.735,1475,1494,634014647,219.57,103148691,0.0382847934961319,-0.17022866010665894,73.24343872070312,0.0064949169754981995
3086582.735,1475,1494,634014647,219.57,103148691,0.042474210262298584,-0.18159988522529602,73.30158233642578,0.005568687804043293
3086682.735,1475,1494,634014647,219.58,103148689,0.03443746268749237,-0.1786230057477951,73.35295104980469,0.0046456498093903065
3086782.735,1475,1494,634014647,219.58,103148689,0.013012271374464035,-0.16880762577056885,73.39138793945312,0.004737289622426033
3086882.735,1475,1494,634014647,219.59,103148688,0.013731990940868855,-0.15192578732967377,73.43612670898438,0.005890524014830589
3086982.735,1475,1494,634014647,219.59,103148688,0.02575007639825344,-0.15457671880722046,73.49504089355469,0.006862111855298281
3087082.735,1475,1494,634014647,219.59,103148686,0.03568682074546814,-0.17407751083374023,73.54334259033203,0.006871395744383335
3087182.735,1475,1494,634014647,219.59,103148686,0.031180284917354584,-0.18011878430843353,73.61277770996094,0.006195932161062956
3087282.735,1475,1494,634014647,219.59,103148685,0.027815602719783783,-0.18205194175243378,73.67160034179688,0.005224861670285463
3087382.735,1475,1494,634014647,219.59,103148685,0.02859942801296711,-0.17005856335163116,73.7208480834961,0.005026655271649361
3087482.735,1475,1494,634014646,219.59,103148683,0.02491884119808674,-0.15339353680610657,73.78202056884766,0.0053939372301101685
3087582.735,1475,1494,634014646,219.59,103148683,0.026692427694797516,-0.14990417659282684,73.8178482055664,0.006053152494132519
3087682.735,1475,1494,634014646,219.6,103148682,0.029112698510289192,-0.1565849781036377,73.84185028076172,0.006869165692478418
3087782.735,1475,1494,634014646,219.6,103148682,0.03440156579017639,-0.1654549241065979,73.88675689697266,0.006584690418094397
3087882.735,1475,1494,634014646,219.59,103148680,0.03210267797112465,-0.1771334707736969,73.91215515136719,0.005824455060064793
3087982.735,1475,1494,634014646,219.59,103148680,0.0300030168145895,-0.18455412983894348,73.92658233642578,0.005334687884896994
3088082.735,1475,1494,634014645,219.6,103148678,0.02326003462076187,-0.17197997868061066,73.96224212646484,0.005823079030960798
3088182.735,1475,1494,634014645,219.6,103148678,0.029564157128334045,-0.16182959079742432,73.99868774414062,0.006522519513964653
3088282.735,1475,1494,634014645,219.6,103148677,0.037239670753479004,-0.1520933210849762,74.08350372314453,0.007230930496007204
3088382.735,1475,1494,634014645,219.6,103148677,0.0332309864461422,-0.15801486372947693,74.17758178710938,0.0071813310496509075
3088482.735,1475,1494,634014645,219.6,103148676,0.03212517499923706,-0.1654130518436432,74.24571228027344,0.006109800189733505
3088582.735,1475,1494,634014645,219.6,103148676,0.02731553465127945,-0.18292999267578125,74.27806854248047,0.0055216955952346325
3088682.735,1475,1494,634014644,219.6,103148673,0.016605107113718987,-0.17863376438617706,74.31584167480469,0.005499003455042839
3088782.735,1475,1494,634014644,219.6,103148673,0.018558846786618233,-0.17068788409233093,74.33478546142578,0.006424073129892349
3088882.735,1475,1494,634014644,219.59,103148672,0.022319497540593147,-0.15553689002990723,74.38349151611328,0.007669687271118164
3088982.735,1475,1494,634014644,219.59,103148672,0.044139519333839417,-0.15489713847637177,74.44869232177734,0.007676527835428715
3089082.735,1475,1494,634014644,219.6,103148671,0.04324183985590935,-0.17053405940532684,74.47241973876953,0.006916197016835213
3089182.735,1475,1494,634014644,219.6,103148671,0.034290581941604614,-0.17431426048278809,74.50679779052734,0.005898065399378538
3089282.735,1475,1494,634014643,219.6,103148669,0.014773168601095676,-0.1746017038822174,74.53618621826172,0.005257401615381241
3089382.735,1475,1494,634014643,219.6,103148669,0.012174766510725021,-0.16946791112422943,74.59031677246094,0.00587555393576622
3089482.735,1475,1494,634014643,219.6,103148667,0.018122896552085876,-0.16145706176757812,74.6539306640625,0.007250589784234762
3089582.735,1475,1494,634014643,219.6,103148667,0.02484745718538761,-0.16021935641765594,74.72911071777344,0.008288629353046417
3089682.735,1475,1494,634014642,219.61,103148666,0.0448731929063797,-0.1717076301574707,74.79463195800781,0.008167460560798645
3089782.735,1475,1494,634014642,219.61,103148666,0.050727590918540955,-0.1772729456424713,74.87116241455078,0.007537975907325745
3089882.735,1475,1494,634014643,219.61,103148665,0.039241351187229156,-0.16687537729740143,74.92691040039062,0.006152163725346327
3089982.735,1475,1494,634014643,219.61,103148665,0.025028539821505547,-0.15591464936733246,74.97272491455078,0.005438569001853466
3090082.735,1475,1494,634014642,219.62,103148663,0.008597850799560547,-0.1525045931339264,75.04393005371094,0.006136070471256971
3090182.735,1475,1494,634014642,219.62,103148663,0.020162994042038918,-0.15722247958183289,75.08810424804688,0.007804425898939371
3090282.735,1475,1494,634014641,219.61,103148661,0.028974322602152824,-0.16613885760307312,75.1494369506836,0.008574359118938446
3090382.735,1475,1494,634014641,219.61,103148661,0.04181484133005142,-0.18185091018676758,75.20771789550781,0.008479513227939606
3090482.735,1475,1494,634014641,219.61,103148660,0.0412033349275589,-0.17819204926490784,75.254638671875,0.0073714544996619225
3090582.735,1475,1494,634014641,219.61,103148660,0.03331657499074936,-0.17116329073905945,75.32416534423828,0.006697461474686861
3090682.735,1475,1494,634014641,219.61,103148659,0.017192121595144272,-0.15702956914901733,75.38188934326172,0.00635064672678709
3090782.735,1475,1494,634014641,219.61,103148659,0.019708048552274704,-0.14919805526733398,75.4436264038086,0.007451650220900774
3090882.735,1475,1494,634014640,219.62,103148657,0.02747533470392227,-0.16646602749824524,75.49579620361328,0.008266286924481392
3090982.735,1475,1494,634014640,219.62,103148657,0.03640969097614288,-0.18233633041381836,75.54630279541016,0.008688431233167648
3091082.735,1475,1494,634014640,219.61,103148655,0.03672661632299423,-0.18675574660301208,75.61608123779297,0.007983447052538395
3091182.735,1475,1494,634014640,219.61,103148655,0.026423657312989235,-0.17641517519950867,75.67839813232422,0.007511492818593979
3091282.735,1475,1494,634014640,219.62,103148653,0.02826721780002117,-0.1596265286207199,75.72106170654297,0.006986310705542564
3091382.735,1475,1494,634014640,219.62,103148653,0.03000005893409252,-0.15161968767642975,75.76138305664062,0.0073334393091499805
3091482.735,1475,1494,634014639,219.61,103148652,0.0320051833987236,-0.15608622133731842,75.82255554199219,0.007674233056604862
3091582.735,1475,1494,634014639,219.61,103148652,0.031207121908664703,-0.17216640710830688,75.9122314453125,0.007960394956171513
3091682.735,1475,1494,634014639,219.61,103148650,0.03796693682670593,-0.18005535006523132,75.95911407470703,0.007893631234765053
3091782.735,1475,1494,634014639,219.61,103148650,0.023695744574069977,-0.17692582309246063,76.0141830444336,0.008062399923801422
3091882.735,1475,1494,634014638,219.62,103148648,0.02389836497604847,-0.16916507482528687,76.09486389160156,0.00847671739757061
3091982.735,1475,1494,634014638,219.62,103148648,0.02267621085047722,-0.15217280387878418,76.15062713623047,0.00846496969461441
3092082.735,1475,1494,634014638,219.62,103148647,0.02642976865172386,-0.16058692336082458,76.19234466552734,0.008080562576651573
3092182.735,1475,1494,634014638,219.62,103148647,0.03345528244972229,-0.1649734377861023,76.25244903564453,0.007406586315482855
3092282.735,1475,1494,634014638,219.61,103148645,0.03686057776212692,-0.17786502838134766,76.31501770019531,0.0072163669392466545
3092382.735,1475,1494,634014638,219.61,103148645,0.02747163362801075,-0.1727246344089508,76.37429809570312,0.0073682102374732494
3092482.735,1475,1494,634014638,219.62,103148643,0.02253168448805809,-0.17104244232177734,76.42162322998047,0.008582179434597492
3092582.735,1475,1494,634014638,219.62,103148643,0.026331372559070587,-0.16384601593017578,76.50021362304688,0.00970962643623352
3092682.735,1475,1494,634014637,219.63,103148642,0.032671961933374405,-0.16106566786766052,76.58634185791016,0.009635824710130692
3092782.735,1475,1494,634014637,219.63,103148642,0.04365245997905731,-0.15659350156784058,76.65251922607422,0.008298431523144245
3092882.735,1475,1494,634014637,219.63,103148640,0.0324711948633194,-0.160212442278862,76.68801879882812,0.006929474882781506
3092982.735,1475,1494,634014637,219.63,103148640,0.015289484523236752,-0.16273540258407593,76.72538757324219,0.006251182872802019
3093082.735,1475,1494,634014637,219.62,103148639,0.017275488004088402,-0.16021695733070374,76.80226135253906,0.007562337443232536
3093182.735,1475,1494,634014637,219.62,103148639,0.023684319108724594,-0.16779524087905884,76.8800277709961,0.00965295359492302
3093282.735,1475,1494,634014637,219.63,103148637,0.04102187603712082,-0.1769830584526062,76.95695495605469,0.01077277958393097
3093382.735,1475,1494,634014637,219.63,103148637,0.052414897829294205,-0.18598441779613495,77.01962280273438,0.010479545220732689
3093482.735,1475,1494,634014637,219.63,103148635,0.04670927673578262,-0.16812583804130554,77.10230255126953,0.008382778614759445
3093582.735,1475,1494,634014637,219.63,103148635,0.03047589212656021,-0.15531450510025024,77.15288543701172,0.0065646846778690815
3093682.735,1475,1494,634014636,219.63,103148634,0.014103857800364494,-0.1497100591659546,77.21639251708984,0.0064153303392231464
3093782.735,1475,1494,634014636,219.63,103148634,0.001218827092088759,-0.14712131023406982,77.2952880859375,0.008127560839056969
3093882.735,1475,1494,634014636,219.64,103148632,0.013602226972579956,-0.1685868501663208,77.37387084960938,0.01008366234600544
3093982.735,1475,1494,634014636,219.64,103148632,0.039604343473911285,-0.18874388933181763,77.41839599609375,0.011022334918379784
3094082.735,1475,1494,634014635,219.64,103148631,0.050794050097465515,-0.18732178211212158,77.47982025146484,0.010206237435340881
3094182.735,1475,1494,634014635,219.64,103148631,0.04776253178715706,-0.17453019320964813,77.49176788330078,0.008097155019640923
3094282.735,1475,1494,634014635,219.64,103148628,0.03489448130130768,-0.14652732014656067,77.52615356445312,0.006831762380897999
3094382.735,1475,1494,634014635,219.64,103148628,0.025576571002602577,-0.14306706190109253,77.5778579711914,0.006769913248717785
3094482.735,1475,1494,634014635,219.65,103148627,0.014942356385290623,-0.15064825117588043,77.606689453125,0.008301868103444576
3094582.735,1475,1494,634014635,219.65,103148627,0.02097315341234207,-0.16554920375347137,77.65811157226562,0.010348984971642494
3094682.735,1475,1494,634014635,219.65,103148626,0.024625519290566444,-0.19178937375545502,77.7236099243164,0.011643851175904274
3094782.735,1475,1494,634014635,219.65,103148626,0.03160370513796806,-0.18438082933425903,77.76887512207031,0.010754982940852642
3094882.735,1475,1494,634014635,219.65,103148624,0.032949093729257584,-0.16764794290065765,77.8158950805664,0.008776800706982613
3094982.735,1475,1494,634014635,219.65,103148624,0.032615650445222855,-0.14487923681735992,77.82567596435547,0.007195635698735714
3095082.735,1475,1494,634014634,219.65,103148622,0.03215618431568146,-0.14716003835201263,77.88825225830078,0.007239771541208029
3095182.735,1475,1494,634014634,219.65,103148622,0.02788984216749668,-0.16149726510047913,77.96366882324219,0.00834445096552372
3095282.735,1475,1494,634014634,219.65,103148621,0.022011233493685722,-0.17934343218803406,78.0531234741211,0.009695906192064285
3095382.735,1475,1494,634014634,219.65,103148621,0.01833430491387844,-0.17840418219566345,78.14254760742188,0.010875767096877098
3095482.735,1475,1494,634014634,219.65,103148619,0.021582938730716705,-0.1667892336845398,78.22241973876953,0.010646231472492218
3095582.735,1475,1494,634014634,219.65,103148619,0.039566975086927414,-0.1526694893836975,78.30133819580078,0.009210183285176754
3095682.735,1475,1494,634014634,219.65,103148617,0.0486387275159359,-0.15334318578243256,78.36309814453125,0.007185828872025013
3095782.735,1475,1494,634014634,219.65,103148617,0.035642124712467194,-0.1612638533115387,78.4005126953125,0.006036861799657345
3095882.735,1475,1494,634014633,219.65,103148615,0.023512650281190872,-0.17764627933502197,78.45449829101562,0.0073193893767893314
3095982.735,1475,1494,634014633,219.65,103148615,0.012193946167826653,-0.18624496459960938,78.51749420166016,0.010088680312037468
3096082.735,1475,1494,634014634,219.66,103148614,0.012114552780985832,-0.17716249823570251,78.61249542236328,0.012475332245230675
3096182.735,1475,1494,634014634,219.66,103148614,0.037701088935136795,-0.16049076616764069,78.6949462890625,0.012071013450622559
3096282.735,1475,1494,634014633,219.65,103148613,0.0560382604598999,-0.1580565720796585,78.77134704589844,0.009356003254652023
3096382.735,1475,1494,634014633,219.65,103148613,0.04855227842926979,-0.15380756556987762,78.8077621459961,0.006161238066852093
3096482.735,1475,1494,634014633,219.66,103148611,0.025670582428574562,-0.15912851691246033,78.81832122802734,0.00511947413906455
3096582.735,1475,1494,634014633,219.66,103148611,0.004762889817357063,-0.16453546285629272,78.87490844726562,0.007000544108450413
3096682.735,1475,1494,634014632,219.66,103148610,0.0011251465184614062,-0.18041430413722992,78.94010162353516,0.01142991241067648
3096782.735,1475,1494,634014632,219.66,103148610,0.027718763798475266,-0.18437162041664124,79.02202606201172,0.013700567185878754
3096882.735,1475,1494,634014632,219.66,103148608,0.05061069130897522,-0.1857520043849945,79.1366958618164,0.012494802474975586
3096982.735,1475,1494,634014632,219.66,103148608,0.06107395887374878,-0.17631486058235168,79.1552963256836,0.008649618364870548
3097082.735,1475,1494,634014632,219.67,103148607,0.043703559786081314,-0.15425747632980347,79.18609619140625,0.005114042200148106
3097182.735,1475,1494,634014632,219.67,103148607,0.018801402300596237,-0.14364810287952423,79.23687744140625,0.004992402158677578
3097282.735,1475,1494,634014632,219.67,103148605,-0.003260570578277111,-0.15452441573143005,79.3138427734375,0.008407680317759514
3097382.735,1475,1494,634014632,219.67,103148605,0.012720257043838501,-0.1678023487329483,79.40857696533203,0.01261442992836237
3097482.735,1475,1494,634014632,219.67,103148604,0.03395548462867737,-0.19269052147865295,79.51475524902344,0.013627984561026096
3097582.735,1475,1494,634014632,219.67,103148604,0.052660487592220306,-0.1954706311225891,79.58549499511719,0.011714904569089413
3097682.735,1475,1494,634014631,219.67,103148602,0.054576680064201355,-0.17222629487514496,79.6264877319336,0.0074984184466302395
3097782.735,1475,1494,634014631,219.67,103148602,0.037772223353385925,-0.15480130910873413,79.66169738769531,0.005328050814568996
3097882.735,1475,1494,634014631,219.68,103148601,0.02172250673174858,-0.13682398200035095,79.73091125488281,0.0062787760980427265
3097982.735,1475,1494,634014631,219.68,103148601,0.01792464219033718,-0.15211910009384155,79.8280029296875,0.009675669483840466
3098082.735,1475,1494,634014631,219.68,103148599,0.021545210853219032,-0.17837285995483398,79.9039535522461,0.012526506558060646
3098182.735,1475,1494,634014631,219.68,103148599,0.03303339704871178,-0.19040444493293762,79.93863677978516,0.012813622131943703
3098282.735,1475,1494,634014631,219.69,103148599,0.030938770622015,-0.17542941868305206,80.00142669677734,0.010582808405160904
3098382.735,1475,1494,634014631,219.69,103148599,0.03566136211156845,-0.16130363941192627,80.0818099975586,0.007699644658714533
3098482.735,1475,1494,634014630,219.69,103148597,0.03845584765076637,-0.15044625103473663,80.15010070800781,0.006405172869563103
3098582.735,1475,1494,634014630,219.69,103148597,0.037303484976291656,-0.1632717251777649,80.21156311035156,0.007247194182127714
3098682.735,1475,1494,634014630,219.69,103148595,0.02785174362361431,-0.16930803656578064,80.27857971191406,0.009999423287808895
3098782.735,1475,1494,634014630,219.69,103148595,0.02089015580713749,-0.1704711616039276,80.3605728149414,0.012242818251252174
3098882.735,1475,1494,634014630,219.69,103148594,0.02494410052895546,-0.16308361291885376,80.45624542236328,0.012387064285576344
3098982.735,1475,1494,634014630,219.69,103148594,0.03156299889087677,-0.16690018773078918,80.5503158569336,0.010194426402449608
3099082.735,1475,1494,634014629,219.69,103148593,0.04172958806157112,-0.1687447428703308,80.61876678466797,0.006854653358459473
3099182.735,1475,1494,634014629,219.69,103148593,0.027921151369810104,-0.17390400171279907,80.67321014404297,0.005855020135641098
3099282.735,1475,1494,634014629,219.69,103148592,0.028051137924194336,-0.17450092732906342,80.73246765136719,0.007671085186302662
3099382.735,1475,1494,634014629,219.69,103148592,0.02107686549425125,-0.1682901829481125,80.81070709228516,0.010721392929553986
3099482.735,1475,1494,634014629,219.69,103148590,0.031490933150053024,-0.15664204955101013,80.8927230834961,0.01258562970906496
3099582.735,1475,1494,634014629,219.69,103148590,0.03753278777003288,-0.15724140405654907,80.96729278564453,0.011756415478885174
3099682.735,1475,1494,634014628,219.7,103148590,0.03668347746133804,-0.15750063955783844,81.02899169921875,0.008801348507404327
3099782.735,1475,1494,634014628,219.7,103148590,0.023680776357650757,-0.1763293296098709,81.08219909667969,0.006032964680343866
3099882.735,1475,1494,634014628,219.69,103148588,0.012509853579103947,-0.1820969134569168,81.14009857177734,0.0066763777285814285
3099982.735,1475,1494,634014628,219.69,103148588,0.015272502787411213,-0.17551736533641815,81.21979522705078,0.009439636021852493
3100082.735,1475,1494,634014628,219.7,103148587,0.02638918347656727,-0.168112650513649,81.31201934814453,0.012592029757797718
3100182.735,1475,1494,634014628,219.7,103148587,0.049522317945957184,-0.16050787270069122,81.39642333984375,0.012642573565244675
3100282.735,1475,1494,634014628,219.7,103148586,0.04873620718717575,-0.15896344184875488,81.46480560302734,0.00999743863940239
3100382.735,1475,1494,634014628,219.7,103148586,0.03435251861810684,-0.16017845273017883,81.51390838623047,0.006865048781037331
3100482.735,1475,1494,634014627,219.7,103148585,0.013201537542045116,-0.1649903953075409,81.57317352294922,0.005641425959765911
3100582.735,1475,1494,634014627,219.7,103148585,0.002747510327026248,-0.17624066770076752,81.64132690429688,0.007705015130341053
3100682.735,1475,1494,634014627,219.7,103148583,0.02286273054778576,-0.1788931041955948,81.70635223388672,0.01121915876865387
3100782.735,1475,1494,634014627,219.7,103148583,0.045182131230831146,-0.17476588487625122,81.77621459960938,0.013134488835930824
3100882.735,1475,1494,634014627,219.71,103148582,0.04944175109267235,-0.17101457715034485,81.84062957763672,0.011609110981225967
3100982.735,1475,1494,634014627,219.71,103148582,0.04758981987833977,-0.16140301525592804,81.88933563232422,0.008414871990680695
3101082.735,1475,1494,634014626,219.7,103148581,0.02450171299278736,-0.14980503916740417,81.94317626953125,0.0059417542070150375
3101182.735,1475,1494,634014626,219.7,103148581,0.015333759598433971,-0.15589693188667297,82.0049057006836,0.006601953878998756
3101282.735,1475,1494,634014626,219.72,103148580,0.008171082474291325,-0.17537635564804077,82.06462097167969,0.009478199295699596
3101382.735,1475,1494,634014626,219.72,103148580,0.02236064150929451,-0.18607012927532196,82.1502456665039,0.011851077899336815
3101482.735,1475,1494,634014626,219.71,103148579,0.039620961993932724,-0.172881618142128,82.24893951416016,0.012065567076206207
3101582.735,1475,1494,634014626,219.71,103148579,0.05045005679130554,-0.16627255082130432,82.32572937011719,0.010130857117474079
3101682.735,1475,1494,634014625,219.71,103148578,0.04142718389630318,-0.16154520213603973,82.38628387451172,0.007565253414213657
3101782.735,1475,1494,634014625,219.71,103148578,0.03658648207783699,-0.15577638149261475,82.44511413574219,0.006149109918624163
3101882.735,1475,1494,634014625,219.71,103148577,0.018239270895719528,-0.16344496607780457,82.51615905761719,0.007283714599907398
3101982.735,1475,1494,634014625,219.71,103148577,0.01494431123137474,-0.16886688768863678,82.6107406616211,0.00974129419773817
3102082.735,1475,1494,634014625,219.72,103148576,0.01752404123544693,-0.17286187410354614,82.7131576538086,0.012113776989281178
3102182.735,1475,1494,634014625,219.72,103148576,0.03334512561559677,-0.17253249883651733,82.79747772216797,0.012330320663750172
3102282.735,1475,1494,634014625,219.72,103148576,0.05002119392156601,-0.1709919273853302,82.85669708251953,0.010022521950304508
3102382.735,1475,1494,634014625,219.72,103148576,0.047317806631326675,-0.16872549057006836,82.87637329101562,0.007421610411256552
3102482.735,1475,1494,634014625,219.71,103148574,0.03444281965494156,-0.16785968840122223,82.90247344970703,0.006257685832679272
3102582.735,1475,1494,634014625,219.71,103148574,0.022106178104877472,-0.15941469371318817,82.95142364501953,0.007376660127192736
3102682.735,1475,1494,634014624,219.73,103148573,0.020269930362701416,-0.1571197360754013,83.02556610107422,0.009855024516582489
3102782.735,1475,1494,634014624,219.73,103148573,0.018678434193134308,-0.16764098405838013,83.11616516113281,0.012044167146086693
3102882.735,1475,1494,634014624,219.73,103148572,0.03456064686179161,-0.17548881471157074,83.17501068115234,0.011689063161611557
3102982.735,1475,1494,634014624,219.73,103148572,0.0388685017824173,-0.17174485325813293,83.2113037109375,0.009504783898591995
3103082.735,1475,1494,634014624,219.73,103148571,0.046157367527484894,-0.17042070627212524,83.23871612548828,0.007362046744674444
3103182.735,1475,1494,634014624,219.73,103148571,0.033796004951000214,-0.1605110466480255,83.26118469238281,0.006755813490599394
3103282.735,1475,1494,634014624,219.72,103148570,0.02123536914587021,-0.15916676819324493,83.31906127929688,0.0077714817598462105
3103382.735,1475,1493,634014624,219.72,103148570,0.011873535811901093,-0.1586775779724121,83.38874816894531,0.010049158707261086
3103482.735,1475,1493,634014624,219.72,103148568,0.019200243055820465,-0.17072239518165588,83.45881652832031,0.011368944309651852
3103582.735,1475,1479,634014624,219.72,103148568,0.028542863205075264,-0.18475788831710815,83.54071044921875,0.011237388476729393
3103682.735,1475,1468,634014624,219.73,103148567,0.04114821180701256,-0.17654812335968018,83.60835266113281,0.009433741681277752
3103782.735,1475,1468,634014624,219.73,103148567,0.04707188159227371,-0.16277667880058289,83.65872955322266,0.0074471402913331985
3103882.735,1475,1468,634014623,219.74,103148566,0.0401238277554512,-0.1564503014087677,83.72948455810547,0.006415945012122393
3103982.735,1475,1468,634014623,219.74,103148566,0.021880056709051132,-0.15237152576446533,83.80309295654297,0.0075567662715911865
3104082.735,1475,1472,634014623,219.73,103148565,0.006833728868514299,-0.16131950914859772,83.87132263183594,0.009986115619540215
3104182.735,1475,1473,634014623,219.73,103148565,0.012202021665871143,-0.17141954600811005,83.939697265625,0.011684790253639221
3104282.735,1475,1478,634014623,219.72,103148564,0.03392853960394859,-0.18404294550418854,84.00403594970703,0.011291739530861378
3104382.735,1475,1482,634014623,219.72,103148564,0.047466740012168884,-0.17585669457912445,84.02860260009766,0.009594723582267761
3104482.735,1475,1496,634014623,219.73,103148563,0.043662384152412415,-0.16774195432662964,84.06503295898438,0.0072280485183000565
3104582.735,1475,1496,634014623,219.73,103148563,0.034448157995939255,-0.15145573019981384,84.12486267089844,0.006261787377297878
3104682.735,1475,1503,634014623,219.73,103148561,0.01810356043279171,-0.1543135941028595,84.16020965576172,0.007692518178373575
3104782.735,1475,1509,634014623,219.73,103148561,0.019050845876336098,-0.16340968012809753,84.2192153930664,0.009860401973128319
3104882.735,1475,1512,634014623,219.74,103148560,0.02169676125049591,-0.18036825954914093,84.31253814697266,0.011509638279676437
3104982.735,1475,1512,634014623,219.74,103148560,0.029567640274763107,-0.18134638667106628,84.38579559326172,0.01122664287686348
3105082.735,1475,1512,634014623,219.74,103148559,0.04371386021375656,-0.1775558590888977,84.44296264648438,0.009032616391777992
3105182.735,1475,1512,634014623,219.74,103148559,0.0467875599861145,-0.1659289300441742,84.49675750732422,0.006680795922875404
3105282.735,1475,1512,634014622,219.73,103148558,0.031239695847034454,-0.16286805272102356,84.53144073486328,0.005730890668928623
3105382.735,1475,1513,634014622,219.73,103148558,0.01623329520225525,-0.16346701979637146,84.59040832519531,0.007794951554387808
3105482.735,1475,1517,634014622,219.73,103148556,0.012794754467904568,-0.16115722060203552,84.66426086425781,0.010708949528634548
3105582.735,1475,1522,634014622,219.73,103148556,0.027705039829015732,-0.17505380511283875,84.71958923339844,0.011812666431069374
3105682.735,1475,1535,634014622,219.74,103148555,0.04219534993171692,-0.1746981143951416,84.79716491699219,0.01054435595870018
3105782.735,1475,1555,634014622,219.74,103148555,0.04507400095462799,-0.1707303524017334,84.84705352783203,0.007824311032891273
3105882.735,1475,1566,634014622,219.74,103148555,0.07587110251188278,-0.15313035249710083,84.85800170898438,0.006119196303188801
3105982.735,1475,1596,634014622,219.74,103148555,0.3544318675994873,-0.16068439185619354,84.88102722167969,0.006919627543538809
3106082.735,1475,1624,634014622,219.75,103148555,0.6075413227081299,-0.17074695229530334,84.9454574584961,0.008201956748962402
3106182.735,1475,1647,634014622,219.75,103148555,1.2510111331939697,-0.1556740403175354,85.00138854980469,0.010739907622337341
3106282.735,1475,1679,634014621,219.75,103148563,2.2255311012268066,-0.17294353246688843,85.04879760742188,0.010838892310857773
3106382.735,1475,1697,634014621,219.75,103148563,2.635265827178955,-0.18211260437965393,85.10617065429688,0.011806421913206577
3106482.735,1475,1708,634014622,219.76,103148586,2.889521837234497,-0.16568273305892944,85.12275695800781,0.012285972014069557
3106582.735,1475,1717,634014622,219.76,103148586,3.014370918273926,-0.12383250892162323,85.11927795410156,0.010058147832751274
3106682.735,1475,1718,634014622,219.76,103148626,2.729767084121704,-0.1450461745262146,85.09735107421875,0.006087953224778175
3106782.735,1475,1718,634014622,219.76,103148626,2.4120895862579346,-0.18494808673858643,85.03852081298828,0.001713131321594119
3106882.735,1475,1718,634014623,219.75,103148678,2.077573299407959,-0.19730232656002045,84.96794128417969,-0.0064257411286234856
3106982.735,1475,1718,634014623,219.75,103148678,1.850832223892212,-0.2185652256011963,84.86906433105469,-0.014747091569006443
3107082.735,1475,1720,634014624,219.76,103148738,1.8006256818771362,-0.22552737593650818,84.73101043701172,-0.01982703059911728
3107182.735,1475,1721,634014624,219.76,103148738,1.747423529624939,-0.22573146224021912,84.55042266845703,-0.023317428305745125
3107282.735,1475,1721,634014626,219.76,103148806,1.7620418071746826,-0.2666513919830322,84.33737182617188,-0.02648055925965309
3107382.735,1475,1721,634014626,219.76,103148806,1.6583565473556519,-0.24527104198932648,84.1279067993164,-0.02981983870267868
3107482.735,1475,1721,634014627,219.75,103148877,1.5813567638397217,-0.22946086525917053,83.9282455444336,-0.030079662799835205
3107582.735,1475,1722,634014627,219.75,103148877,1.478583812713623,-0.29671454429626465,83.75967407226562,-0.03125561773777008
3107682.735,1475,1722,634014630,219.75,103148952,1.433058738708496,-0.25933021306991577,83.57534790039062,-0.03108091652393341
3107782.735,1475,1722,634014630,219.75,103148952,1.383641242980957,-0.2206423431634903,83.39187622070312,-0.028900928795337677
3107882.735,1475,1722,634014632,219.75,103149029,1.4034614562988281,-0.28549066185951233,83.13448333740234,-0.02855803072452545
3107982.735,1475,1722,634014632,219.75,103149029,1.3662590980529785,-0.2545841932296753,82.92414093017578,-0.028563309460878372
3108082.735,1475,1722,634014635,219.76,103149105,1.3188623189926147,-0.2357165813446045,82.75881958007812,-0.027819206938147545
3108182.735,1475,1722,634014635,219.76,103149105,1.3183752298355103,-0.23469072580337524,82.5718002319336,-0.02797158621251583
3108282.735,1475,1722,634014638,219.77,103149184,1.2794418334960938,-0.2626648247241974,82.38737487792969,-0.028237072750926018
3108382.735,1475,1722,634014638,219.77,103149184,1.296440601348877,-0.2487630695104599,82.17949676513672,-0.028312280774116516
3108482.735,1475,1722,634014641,219.76,103149262,1.2918574810028076,-0.2321305274963379,82.00271606445312,-0.030453993007540703
3108582.735,1475,1722,634014641,219.76,103149262,1.253033995628357,-0.27209633588790894,81.80107879638672,-0.03173217549920082
3108682.735,1475,1722,634014644,219.76,103149340,1.2399451732635498,-0.2320045381784439,81.60137176513672,-0.028969207778573036
3108782.735,1475,1722,634014644,219.76,103149340,1.294425368309021,-0.2630830407142639,81.42572784423828,-0.029461152851581573
3108882.735,1475,1722,634014648,219.76,103149417,1.211559772491455,-0.22876691818237305,81.27062225341797,-0.029816901311278343
3108982.735,1475,1722,634014648,219.76,103149417,1.2568161487579346,-0.23700855672359467,81.1161117553711,-0.02714778669178486
3109082.735,1475,1722,634014651,219.76,103149496,1.2746362686157227,-0.2710686922073364,80.94210815429688,-0.027239268645644188
3109182.735,1475,1724,634014651,219.76,103149496,1.2641751766204834,-0.25514453649520874,80.78487396240234,-0.0277361162006855
3109282.735,1475,1724,634014655,219.77,103149572,1.2625384330749512,-0.22068780660629272,80.6349105834961,-0.02464713342487812
3109382.735,1475,1724,634014655,219.77,103149572,1.258337140083313,-0.21613985300064087,80.44412994384766,-0.022278646007180214
3109482.735,1475,1724,634014659,219.77,103149651,1.2771104574203491,-0.22644615173339844,80.28947448730469,-0.021612495183944702
3109582.735,1475,1724,634014659,219.77,103149651,1.292049765586853,-0.20799432694911957,80.1513671875,-0.021375488489866257
3109682.735,1475,1724,634014662,219.77,103149728,1.2890596389770508,-0.2246406227350235,80.02181243896484,-0.021205423399806023
3109782.735,1475,1726,634014662,219.77,103149728,1.252434492111206,-0.24975737929344177,79.8581314086914,-0.022835049778223038
3109882.735,1475,1726,634014667,219.77,103149806,1.2741771936416626,-0.24077162146568298,79.72667694091797,-0.023640841245651245
3109982.735,1475,1726,634014667,219.77,103149806,1.2578363418579102,-0.24711200594902039,79.59832763671875,-0.023056142032146454
3110082.735,1475,1727,634014671,219.77,103149883,1.3392770290374756,-0.27447277307510376,79.43711853027344,-0.025358356535434723
3110182.735,1475,1727,634014671,219.77,103149883,1.2959399223327637,-0.2366332858800888,79.24920654296875,-0.02808651328086853
3110282.735,1475,1727,634014675,219.78,103149961,1.309488296508789,-0.2123032510280609,79.04381561279297,-0.027391178533434868
3110382.735,1475,1727,634014675,219.78,103149961,1.2852574586868286,-0.24171599745750427,78.84699249267578,-0.028421711176633835
3110482.735,1475,1727,634014681,219.77,103150039,1.3006653785705566,-0.2094762772321701,78.67860412597656,-0.029098279774188995
3110582.735,1475,1727,634014681,219.77,103150039,1.3092677593231201,-0.21393650770187378,78.51268005371094,-0.027824129909276962
3110682.735,1475,1727,634014685,219.78,103150117,1.2747827768325806,-0.2954460084438324,78.33991241455078,-0.02778414636850357
3110782.735,1475,1727,634014685,219.78,103150117,1.2642614841461182,-0.20097073912620544,78.17646789550781,-0.027768783271312714
3110882.735,1475,1727,634014691,219.78,103150195,1.3241734504699707,-0.21992719173431396,78.01042938232422,-0.024460792541503906
3110982.735,1475,1727,634014691,219.78,103150195,1.2448368072509766,-0.2409982979297638,77.83589935302734,-0.024720486253499985
3111082.735,1475,1727,634014696,219.78,103150273,1.335453987121582,-0.2706223726272583,77.65233612060547,-0.026038097217679024
3111182.735,1475,1727,634014696,219.78,103150273,1.2329126596450806,-0.2014131397008896,77.50122833251953,-0.026103191077709198
3111282.735,1475,1727,634014702,219.78,103150351,1.3415539264678955,-0.2835748493671417,77.33551025390625,-0.02421821653842926
3111382.735,1475,1727,634014702,219.78,103150351,1.222225308418274,-0.2268708497285843,77.16197204589844,-0.02465265430510044
3111482.735,1475,1727,634014707,219.79,103150429,1.3343068361282349,-0.2429230511188507,76.99429321289062,-0.024206332862377167
3111582.735,1475,1727,634014707,219.79,103150429,1.242535948753357,-0.25618699193000793,76.81398010253906,-0.02555767446756363
3111682.735,1475,1727,634014714,219.78,103150507,1.3183753490447998,-0.25586822628974915,76.65277862548828,-0.02497226931154728
3111782.735,1475,1727,634014714,219.78,103150507,1.2338919639587402,-0.2111758589744568,76.4882583618164,-0.024142196401953697
3111882.735,1475,1727,634014720,219.78,103150585,1.3028475046157837,-0.2626747488975525,76.31786346435547,-0.025392573326826096
3111982.735,1475,1727,634014720,219.78,103150585,1.2384361028671265,-0.24041491746902466,76.1583480834961,-0.027719492092728615
3112082.735,1475,1727,634014726,219.79,103150663,1.303254246711731,-0.2511342763900757,75.96963500976562,-0.02740071341395378
3112182.735,1475,1727,634014726,219.79,103150663,1.2897484302520752,-0.21129707992076874,75.78028869628906,-0.026752706617116928
3112282.735,1475,1727,634014733,219.79,103150741,1.2722883224487305,-0.2758171558380127,75.59314727783203,-0.026477906852960587
3112382.735,1475,1727,634014733,219.79,103150741,1.2979460954666138,-0.229920893907547,75.40762329101562,-0.026947882026433945
3112482.735,1475,1727,634014739,219.78,103150818,1.2541455030441284,-0.24389861524105072,75.20569610595703,-0.02604885958135128
3112582.735,1475,1727,634014739,219.78,103150818,1.3056776523590088,-0.2553563416004181,75.07524108886719,-0.024499688297510147
3112682.735,1475,1727,634014746,219.79,103150897,1.2569859027862549,-0.24975375831127167,74.92251586914062,-0.02405686303973198
3112782.735,1475,1727,634014746,219.79,103150897,1.2795484066009521,-0.20668816566467285,74.73310852050781,-0.023637179285287857
3112882.735,1475,1727,634014753,219.8,103150975,1.1955866813659668,-0.22819635272026062,74.56314849853516,-0.024524834007024765
3112982.735,1475,1727,634014753,219.8,103150975,1.2777528762817383,-0.23932509124279022,74.39239501953125,-0.024598253890872
3113082.735,1475,1727,634014760,219.8,103151052,1.2488298416137695,-0.2537194788455963,74.21005249023438,-0.024721631780266762
3113182.735,1475,1727,634014760,219.8,103151052,1.2465821504592896,-0.23503194749355316,74.04066467285156,-0.0249804500490427
3113282.735,1475,1727,634014768,219.81,103151129,1.312488079071045,-0.2692185044288635,73.8587646484375,-0.025477686896920204
3113382.735,1475,1727,634014768,219.81,103151129,1.2969183921813965,-0.24486783146858215,73.67350006103516,-0.02603229135274887
3113482.735,1475,1727,634014775,219.8,103151207,1.2849764823913574,-0.27416282892227173,73.47608947753906,-0.02751086838543415
3113582.735,1475,1727,634014775,219.8,103151207,1.2379846572875977,-0.23257768154144287,73.31877136230469,-0.027100708335638046
3113682.735,1475,1464,634014783,219.81,103151284,1.0788062810897827,-0.23459911346435547,73.13628387451172,-0.025461111217737198
3113782.735,1475,1484,634014783,219.81,103151284,0.12012163549661636,-0.21187999844551086,73.02482604980469,-0.02335856668651104
3113882.735,1475,1485,634014790,219.8,103151355,-0.5499627590179443,-0.20518538355827332,72.9443130493164,-0.019659128040075302
3113982.735,1475,1485,634014790,219.8,103151355,-0.8499682545661926,-0.15666916966438293,72.91625213623047,-0.018521998077630997
3114082.735,1475,1485,634014796,219.8,103151414,-1.0376440286636353,-0.19420704245567322,72.8962631225586,-0.016101613640785217
3114182.735,1475,1485,634014796,219.8,103151414,-0.9044224619865417,-0.2042420208454132,72.82003021240234,-0.016414795070886612
3114282.735,1475,1485,634014801,219.81,103151463,-0.6872622966766357,-0.15920141339302063,72.75167083740234,-0.018808836117386818
3114382.735,1475,1485,634014801,219.81,103151463,-0.41485530138015747,-0.18590979278087616,72.68962860107422,-0.01700776070356369
3114482.735,1475,1485,634014806,219.81,103151505,-0.21337036788463593,-0.23344948887825012,72.6032943725586,-0.012466960586607456
3114582.735,1475,1485,634014806,219.81,103151505,-0.20358577370643616,-0.15564796328544617,72.54794311523438,-0.011674603447318077
3114682.735,1475,1485,634014810,219.81,103151544,-0.337608277797699,-0.16999660432338715,72.53369140625,-0.011093512177467346
3114782.735,1475,1485,634014810,219.81,103151544,-0.5259836912155151,-0.20572784543037415,72.53667449951172,-0.010525133460760117
3114882.735,1475,1485,634014814,219.82,103151580,-0.36695975065231323,-0.15335804224014282,72.50249481201172,-0.010312510654330254
3114982.735,1475,1485,634014814,219.82,103151580,-0.42788052558898926,-0.14111104607582092,72.49266815185547,-0.010131368413567543
3115082.735,1475,1485,634014818,219.83,103151614,-0.25598612427711487,-0.265433669090271,72.45345306396484,-0.009971503168344498
3115182.735,1475,1485,634014818,219.83,103151614,-0.2282501757144928,-0.1736554652452469,72.43517303466797,-0.010684089735150337
3115282.735,1475,1485,634014821,219.84,103151648,-0.2256726771593094,-0.13721947371959686,72.40878295898438,-0.010192107409238815
3115382.735,1475,1485,634014821,219.84,103151648,-0.30877041816711426,-0.21869802474975586,72.43018341064453,-0.00789713580161333
3115482.735,1475,1485,634014825,219.84,103151681,-0.3076149821281433,-0.15370073914527893,72.39644622802734,-0.007006107829511166
3115582.735,1475,1485,634014825,219.84,103151681,-0.3228631615638733,-0.15869808197021484,72.33577728271484,-0.009015098214149475
3115682.735,1475,1485,634014828,219.85,103151713,-0.3448541462421417,-0.22013665735721588,72.2674789428711,-0.010620327666401863
3115782.735,1475,1485,634014828,219.85,103151713,-0.3024488091468811,-0.1687851846218109,72.22953033447266,-0.010882489383220673
3115882.735,1475,1485,634014832,219.85,103151744,-0.27770230174064636,-0.14952276647090912,72.19171142578125,-0.010411876253783703
3115982.735,1475,1485,634014832,219.85,103151744,-0.25140097737312317,-0.1917617917060852,72.12943267822266,-0.0107258390635252
3116082.735,1475,1485,634014835,219.86,103151774,-0.24940356612205505,-0.1600784957408905,72.07624053955078,-0.012469487264752388
3116182.735,1475,1485,634014835,219.86,103151774,-0.19565993547439575,-0.15329141914844513,72.00257110595703,-0.012946049682796001
3116282.735,1475,1485,634014838,219.86,103151800,-0.18511386215686798,-0.17917925119400024,71.92105102539062,-0.01266116090118885
3116382.735,1475,1485,634014838,219.86,103151800,-0.12109443545341492,-0.16550976037979126,71.89696502685547,-0.010678860358893871
3116482.735,1475,1485,634014840,219.86,103151823,-0.08622362464666367,-0.15939931571483612,71.89210510253906,-0.007911376655101776
3116582.735,1475,1485,634014840,219.86,103151823,-0.0613134428858757,-0.1850680559873581,71.9033203125,-0.004376792814582586
3116682.735,1475,1485,634014843,219.86,103151845,-0.026840515434741974,-0.17247098684310913,71.9134521484375,-0.0019427096704021096
3116782.735,1475,1485,634014843,219.86,103151845,-0.008779307827353477,-0.17290355265140533,71.92886352539062,-0.0008775849128141999
3116882.735,1475,1485,634014845,219.86,103151864,-0.027404796332120895,-0.18131347000598907,71.96516418457031,0.0002008844749070704
3116982.735,1475,1485,634014845,219.86,103151864,-0.05032254755496979,-0.1782647669315338,71.99644470214844,0.0006172469002194703
3117082.735,1475,1485,634014847,219.86,103151885,-0.09089922159910202,-0.17232003808021545,72.00977325439453,-0.0003226719854865223
3117182.735,1475,1485,634014847,219.86,103151885,-0.12224844843149185,-0.1852017343044281,71.99234771728516,-0.003254757495597005
3117282.735,1475,1485,634014849,219.88,103151908,-0.15993373095989227,-0.17237184941768646,71.95039367675781,-0.007688290439546108
3117382.735,1475,1485,634014849,219.88,103151908,-0.17370820045471191,-0.1637357771396637,71.89877319335938,-0.010140939615666866
3117482.735,1475,1485,634014852,219.89,103151930,-0.1844167411327362,-0.1668781340122223,71.80760192871094,-0.011191326193511486
3117582.735,1475,1485,634014852,219.89,103151930,-0.17679989337921143,-0.16464383900165558,71.7419662475586,-0.012199485674500465
3117682.735,1475,1485,634014854,219.89,103151952,-0.157820463180542,-0.1690106838941574,71.67154693603516,-0.011809337884187698
3117782.735,1475,1485,634014854,219.89,103151952,-0.10329543054103851,-0.1655443012714386,71.58805084228516,-0.010026848874986172
3117882.735,1475,1485,634014856,219.89,103151971,-0.06700728833675385,-0.16954229772090912,71.50077056884766,-0.007060387171804905
3117982.735,1475,1485,634014856,219.89,103151971,-0.01574036292731762,-0.155262291431427,71.451171875,-0.003741062246263027
3118082.735,1475,1485,634014858,219.89,103151989,0.01844429038465023,-0.1584148406982422,71.43772888183594,-0.000388558633858338
3118182.735,1475,1485,634014858,219.89,103151989,0.06920535862445831,-0.16929298639297485,71.48896026611328,0.0019525624811649323
3118282.735,1475,1485,634014860,219.89,103152004,0.09167484939098358,-0.16366833448410034,71.55040740966797,0.002894308418035507
3118382.735,1475,1485,634014860,219.89,103152004,0.08771277964115143,-0.1727319210767746,71.62191772460938,0.0042373077012598515
3118482.735,1475,1485,634014862,219.88,103152019,0.04275523126125336,-0.17246554791927338,71.69474029541016,0.003908687736839056
3118582.735,1475,1485,634014862,219.88,103152019,-0.027228685095906258,-0.1728963702917099,71.75503540039062,0.002107350155711174
3118682.735,1475,1485,634014863,219.89,103152035,-0.11072134226560593,-0.1773851215839386,71.748046875,-0.00159107253421098
3118782.735,1475,1485,634014863,219.89,103152035,-0.175665482878685,-0.17607057094573975,71.6899642944336,-0.0062178438529372215
3118882.735,1475,1485,634014866,219.92,103152053,-0.21472221612930298,-0.17213872075080872,71.62913513183594,-0.009722218848764896
3118982.735,1475,1485,634014866,219.92,103152053,-0.20742440223693848,-0.17661496996879578,71.54474639892578,-0.010844217613339424
3119082.735,1475,1485,634014868,219.92,103152070,-0.15830105543136597,-0.17499981820583344,71.46318817138672,-0.01140984334051609
3119182.735,1475,1485,634014868,219.92,103152070,-0.1042284443974495,-0.16661997139453888,71.3882064819336,-0.010514581575989723
3119282.735,1475,1485,634014869,219.93,103152086,-0.02683352306485176,-0.15242710709571838,71.34799194335938,-0.0075508058071136475
3119382.735,1475,1485,634014869,219.93,103152086,0.03561589866876602,-0.14909976720809937,71.29801940917969,-0.0037898579612374306
3119482.735,1475,1485,634014871,219.9,103152100,0.08340099453926086,-0.15805967152118683,71.29217529296875,-0.00022049975814297795
3119582.735,1475,1485,634014871,219.9,103152100,0.11040276288986206,-0.16701078414916992,71.28353881835938,0.0019500149646773934
3119682.735,1475,1485,634014873,219.89,103152111,0.09708075225353241,-0.17302078008651733,71.3083724975586,0.002157812938094139
3119782.735,1475,1485,634014873,219.89,103152111,0.07356122136116028,-0.17537853121757507,71.36182403564453,0.0017242557369172573
3119882.735,1475,1485,634014874,219.87,103152123,0.036125876009464264,-0.17594531178474426,71.39507293701172,0.0007106786360964179
3119982.735,1475,1485,634014874,219.87,103152123,-0.0027884114533662796,-0.17102113366127014,71.42558288574219,-0.0005071681225672364
3120082.735,1475,1485,634014875,219.88,103152136,-0.043822284787893295,-0.17414265871047974,71.43254852294922,-0.0027018862310796976
3120182.735,1475,1485,634014875,219.88,103152136,-0.09536311775445938,-0.1717349737882614,71.4591293334961,-0.004805399104952812
3120282.735,1475,1485,634014877,219.89,103152148,-0.13227254152297974,-0.16393952071666718,71.4507827758789,-0.007007614243775606
3120382.735,1475,1485,634014877,219.89,103152148,-0.13978761434555054,-0.16876381635665894,71.41217041015625,-0.008694932796061039
3120482.735,1475,1485,634014879,219.9,103152162,-0.11086618900299072,-0.1659241020679474,71.35438537597656,-0.00956062600016594
3120582.735,1475,1485,634014879,219.9,103152162,-0.08385217934846878,-0.17385423183441162,71.2643051147461,-0.009615974500775337
3120682.735,1475,1485,634014880,219.9,103152175,-0.033278364688158035,-0.17346426844596863,71.1998519897461,-0.008587426505982876
3120782.735,1475,1485,634014880,219.9,103152175,0.004267613869160414,-0.1671985685825348,71.15003967285156,-0.006251840386539698
3120882.735,1475,1485,634014881,219.91,103152190,0.03746405616402626,-0.16772936284542084,71.11703491210938,-0.004028141964226961
3120982.735,1475,1485,634014881,219.91,103152190,0.06507264077663422,-0.1575143188238144,71.13214111328125,-0.0010131829185411334
3121082.735,1475,1485,634014883,219.9,103152202,0.07651660591363907,-0.16348505020141602,71.15038299560547,0.001688607269898057
3121182.735,1475,1485,634014883,219.9,103152202,0.07194241881370544,-0.15745797753334045,71.18146514892578,0.002532802987843752
3121282.735,1475,1485,634014884,219.9,103152212,0.046564944088459015,-0.1639292985200882,71.22309875488281,0.002096880692988634
3121382.735,1475,1485,634014884,219.9,103152212,0.023965144529938698,-0.15798701345920563,71.21273040771484,0.0009735649800859392
3121482.735,1475,1485,634014885,219.9,103152222,-0.00032624477171339095,-0.16500769555568695,71.23160552978516,-0.0007581753307022154
3121582.735,1475,1485,634014885,219.9,103152222,-0.02442924864590168,-0.17346110939979553,71.23108673095703,-0.002093814779073
3121682.735,1475,1485,634014886,219.92,103152234,-0.048385679721832275,-0.1807430386543274,71.21656036376953,-0.002582353539764881
3121782.735,1475,1485,634014886,219.92,103152234,-0.06511090695858002,-0.1729356050491333,71.23160552978516,-0.0030179971363395452
3121882.735,1475,1485,634014887,219.93,103152245,-0.055330317467451096,-0.18376563489437103,71.20992279052734,-0.0035884890239685774
3121982.735,1475,1485,634014887,219.93,103152245,-0.06021452322602272,-0.1757120043039322,71.15739440917969,-0.00521876011043787
3122082.735,1475,1485,634014889,219.94,103152257,-0.05786220729351044,-0.1776009500026703,71.11012268066406,-0.007454171776771545
3122182.735,1475,1485,634014889,219.94,103152257,-0.060677267611026764,-0.17020270228385925,71.07345581054688,-0.008334323763847351
3122282.735,1475,1485,634014891,219.95,103152269,-0.04369669780135155,-0.15702064335346222,71.05433654785156,-0.006776021793484688
3122382.735,1475,1485,634014891,219.95,103152269,-0.007244614418596029,-0.15588025748729706,71.05121612548828,-0.003647556994110346
3122482.735,1475,1485,634014892,219.95,103152280,0.054046742618083954,-0.15395420789718628,71.05577850341797,-0.00011508425086503848
3122582.735,1475,1485,634014892,219.95,103152280,0.09516225755214691,-0.15433752536773682,71.06427001953125,0.0028065391816198826
3122682.735,1475,1485,634014893,219.95,103152290,0.10773219168186188,-0.16824811697006226,71.08479309082031,0.0032618881668895483
3122782.735,1475,1485,634014893,219.95,103152290,0.09552997350692749,-0.16584640741348267,71.1089096069336,0.0024047926999628544
3122882.735,1475,1485,634014894,219.95,103152299,0.04738907888531685,-0.1663505882024765,71.13549041748047,0.001438773819245398
3122982.735,1475,1485,634014894,219.95,103152299,0.011776474304497242,-0.1695140153169632,71.11824798583984,-0.00040616048499941826
3123082.735,1475,1485,634014896,219.96,103152308,-0.044491514563560486,-0.17248375713825226,71.10893249511719,-0.0016908738762140274
3123182.735,1475,1485,634014896,219.96,103152308,-0.07424237579107285,-0.16975128650665283,71.1239242553711,-0.0034710881300270557
3123282.735,1475,1485,634014897,219.97,103152318,-0.08379513770341873,-0.17595815658569336,71.10054779052734,-0.004415601491928101
3123382.735,1475,1485,634014897,219.97,103152318,-0.07329811900854111,-0.1814892590045929,71.05694580078125,-0.005545554682612419
3123482.735,1475,1485,634014898,219.97,103152328,-0.04975167661905289,-0.1722531020641327,71.0263671875,-0.006360460538417101
3123582.735,1475,1485,634014898,219.97,103152328,-0.024983851239085197,-0.16703848540782928,71.0193099975586,-0.005811046343296766
3123682.735,1475,1485,634014900,219.97,103152338,0.006201060488820076,-0.15855421125888824,70.9982681274414,-0.004619687329977751
3123782.735,1475,1485,634014900,219.97,103152338,0.02848513051867485,-0.1549844592809677,71.0028076171875,-0.0031278179958462715
3123882.735,1475,1485,634014901,219.97,103152348,0.04058929905295372,-0.1499081403017044,71.00824737548828,-0.0015159428585320711
3123982.735,1475,1485,634014901,219.97,103152348,0.061267752200365067,-0.15455931425094604,71.0029296875,0.0001915554457809776
3124082.735,1475,1485,634014902,219.96,103152357,0.06215502694249153,-0.15715336799621582,71.00736236572266,0.0018651311984285712
3124182.735,1475,1485,634014902,219.96,103152357,0.07065480202436447,-0.16652092337608337,71.0239486694336,0.002415189752355218
3124282.735,1475,1485,634014904,219.96,103152365,0.05361270159482956,-0.1743757128715515,71.0409927368164,0.0017429918516427279
3124382.735,1475,1485,634014904,219.96,103152365,0.03157920390367508,-0.1704755276441574,71.05197143554688,0.0003936312277801335
3124482.735,1475,1485,634014905,219.97,103152372,-0.007473545614629984,-0.16684310138225555,71.05176544189453,-0.001107826130464673
3124582.735,1475,1485,634014905,219.97,103152372,-0.02368171699345112,-0.17133483290672302,71.03067016601562,-0.002468265127390623
3124682.735,1475,1485,634014906,219.97,103152380,-0.050937995314598083,-0.18462274968624115,70.99507141113281,-0.004394433926790953
3124782.735,1475,1485,634014906,219.97,103152380,-0.06631632149219513,-0.17575427889823914,70.9686279296875,-0.006047852337360382
3124882.735,1475,1485,634014907,219.97,103152390,-0.06829040497541428,-0.16681693494319916,70.93482971191406,-0.005564989987760782
3124982.735,1475,1485,634014907,219.97,103152390,-0.035699378699064255,-0.15864014625549316,70.90682983398438,-0.003689624834805727
3125082.735,1475,1485,634014909,219.97,103152399,0.004811935126781464,-0.16873764991760254,70.86995697021484,-0.0028745639137923717
3125182.735,1475,1485,634014909,219.97,103152399,0.026757963001728058,-0.1736917346715927,70.86051940917969,-0.002949573565274477
3125282.735,1475,1485,634014910,219.96,103152407,0.03259661793708801,-0.15832921862602234,70.85626983642578,-0.002010117284953594
3125382.735,1475,1485,634014910,219.96,103152407,0.06158927455544472,-0.14439994096755981,70.876953125,0.0007233918295241892
3125482.735,1475,1485,634014911,219.96,103152415,0.09156539291143417,-0.14341536164283752,70.9023208618164,0.0028507784008979797
3125582.735,1475,1485,634014911,219.96,103152415,0.09323123097419739,-0.16408656537532806,70.97806549072266,0.003362176939845085
3125682.735,1475,1485,634014913,219.96,103152422,0.07006319612264633,-0.1718083769083023,71.0123519897461,0.00172168028075248
3125782.735,1475,1485,634014913,219.96,103152422,0.015938790515065193,-0.17238253355026245,71.0288314819336,-0.00025585180264897645
3125882.735,1475,1485,634014914,219.97,103152430,-0.017469828948378563,-0.16792809963226318,71.05049896240234,-0.0014123761793598533
3125982.735,1475,1485,634014914,219.97,103152430,-0.044345684349536896,-0.18183252215385437,71.0474624633789,-0.0023595201782882214
3126082.735,1475,1485,634014915,219.97,103152438,-0.05518283322453499,-0.17971637845039368,71.01825714111328,-0.003101605921983719
3126182.735,1475,1485,634014915,219.97,103152438,-0.04056920111179352,-0.17859169840812683,70.99221801757812,-0.0036525772884488106
3126282.735,1475,1485,634014917,219.97,103152446,-0.02583581954240799,-0.16880324482917786,70.98150634765625,-0.003768461523577571
3126382.735,1475,1485,634014917,219.97,103152446,-0.002584089757874608,-0.16323016583919525,70.9704818725586,-0.0033870325423777103
3126482.735,1475,1485,634014918,219.97,103152454,0.026707429438829422,-0.16897781193256378,70.9432601928711,-0.002994916867464781
3126582.735,1475,1485,634014918,219.97,103152454,0.04269450530409813,-0.16069190204143524,70.92919158935547,-0.0018460472347214818
3126682.735,1475,1485,634014920,219.97,103152462,0.049867525696754456,-0.15338298678398132,70.91515350341797,0.0007214989163912833
3126782.735,1475,1485,634014920,219.97,103152462,0.06301051378250122,-0.14640578627586365,70.92217254638672,0.003066500648856163
3126882.735,1475,1485,634014921,219.96,103152469,0.07099803537130356,-0.16267472505569458,70.93521118164062,0.00361028965562582
3126982.735,1475,1485,634014921,219.96,103152469,0.07356594502925873,-0.16962479054927826,70.95140838623047,0.0022230346221476793
3127082.735,1475,1485,634014922,219.96,103152476,0.0471314899623394,-0.1856001615524292,70.95996856689453,-0.00011438566434662789
3127182.735,1475,1485,634014922,219.96,103152476,-0.0022900248877704144,-0.1680438071489334,70.97354125976562,-0.001407715491950512
3127282.735,1475,1485,634014924,219.96,103152482,-0.0325741171836853,-0.15824398398399353,70.98637390136719,-0.0019150523003190756
3127382.735,1475,1485,634014924,219.96,103152482,-0.038453660905361176,-0.17091113328933716,70.99457550048828,-0.0015191228594630957
3127482.735,1475,1485,634014925,219.96,103152489,-0.028636202216148376,-0.1813737452030182,70.97720336914062,-0.0015561416512355208
3127582.735,1475,1485,634014925,219.96,103152489,-0.016221318393945694,-0.17785941064357758,70.9727554321289,-0.002813720377162099
3127682.735,1475,1485,634014926,219.97,103152496,-0.015833616256713867,-0.17079931497573853,70.9499740600586,-0.004075672943145037
3127782.735,1475,1485,634014926,219.97,103152496,0.006586582399904728,-0.1673019379377365,70.92601013183594,-0.0036089117638766766
3127882.735,1475,1485,634014927,219.97,103152503,0.02645167149603367,-0.15693804621696472,70.91182708740234,-0.0026790318079292774
3127982.735,1475,1485,634014927,219.97,103152503,0.05103534087538719,-0.1534785032272339,70.89225769042969,-0.0007973508909344673
3128082.735,1475,1485,634014928,219.96,103152509,0.07149700075387955,-0.15297403931617737,70.87171173095703,0.001821406651288271
3128182.735,1475,1485,634014928,219.96,103152509,0.07076653093099594,-0.16181506216526031,70.8830337524414,0.0032095841597765684
3128282.735,1475,1485,634014928,219.96,103152515,0.06102193892002106,-0.17300757765769958,70.89544677734375,0.0018528978107497096
3128382.735,1475,1485,634014928,219.96,103152515,0.03443443030118942,-0.17243944108486176,70.91133880615234,-0.0002153838868252933
3128482.735,1475,1485,634014929,219.96,103152521,0.005233850795775652,-0.16573822498321533,70.90320587158203,-0.0017020208761096
3128582.735,1475,1485,634014929,219.96,103152521,-0.020511776208877563,-0.16298700869083405,70.88817596435547,-0.0025348891504108906
3128682.735,1475,1485,634014930,219.97,103152527,-0.026789115741848946,-0.16773156821727753,70.9028091430664,-0.00306648388504982
3128782.735,1475,1485,634014930,219.97,103152527,-0.026299607008695602,-0.18525198101997375,70.8927993774414,-0.004098652862012386
3128882.735,1475,1485,634014931,219.97,103152533,-0.028846096247434616,-0.1815478652715683,70.86519622802734,-0.0046199713833630085
3128982.735,1475,1485,634014931,219.97,103152533,-0.01179282832890749,-0.1679198294878006,70.85706329345703,-0.0034314680378884077
3129082.735,1475,1485,634014932,219.97,103152539,0.016346685588359833,-0.1568511575460434,70.83203887939453,-0.0017557619139552116
3129182.735,1475,1485,634014932,219.97,103152539,0.05341492220759392,-0.1553575098514557,70.82723999023438,-0.0000483866679132916
3129282.735,1475,1485,634014933,219.97,103152545,0.07388535887002945,-0.16096708178520203,70.81892395019531,6.921417252669926e-7
3129382.735,1475,1485,634014933,219.97,103152545,0.08097195625305176,-0.15782447159290314,70.82743072509766,0.00019885548681486398
3129482.735,1475,1485,634014933,219.96,103152550,0.06464096158742905,-0.1577775627374649,70.85186767578125,0.0007001141784712672
3129582.735,1475,1485,634014933,219.96,103152550,0.04843296483159065,-0.15574897825717926,70.86881256103516,0.0005471645854413509
3129682.735,1475,1485,634014934,219.96,103152556,0.022106816992163658,-0.1688564121723175,70.87206268310547,-0.001148780109360814
3129782.735,1475,1485,634014934,219.96,103152556,-0.013026426546275616,-0.17662495374679565,70.86439514160156,-0.002316711936146021
3129882.735,1475,1485,634014935,219.96,103152561,-0.03626598045229912,-0.17732517421245575,70.83609771728516,-0.002497149398550391
3129982.735,1475,1485,634014935,219.96,103152561,-0.03286071866750717,-0.17585954070091248,70.8165054321289,-0.0028966874815523624
3130082.735,1475,1485,634014936,219.96,103152567,-0.019334834069013596,-0.17245739698410034,70.77493286132812,-0.003956890664994717
3130182.735,1475,1485,634014936,219.96,103152567,-0.0008318879408761859,-0.17170606553554535,70.72982025146484,-0.004504774697124958
3130282.735,1475,1485,634014936,219.96,103152572,0.022639650851488113,-0.17027243971824646,70.70665740966797,-0.004145666491240263
3130382.735,1475,1485,634014936,219.96,103152572,0.043799642473459244,-0.16340740025043488,70.69674682617188,-0.0016703520668670535
3130482.735,1475,1485,634014937,219.96,103152578,0.07121654599905014,-0.16190581023693085,70.69805908203125,0.0003690720477607101
3130582.735,1475,1485,634014937,219.96,103152578,0.06999442726373672,-0.1527542769908905,70.69941711425781,0.0008343221852555871
3130682.735,1475,1485,634014938,219.96,103152583,0.07047681510448456,-0.15680253505706787,70.69763946533203,0.0007644074503332376
3130782.735,1475,1485,634014938,219.96,103152583,0.05428100377321243,-0.15694011747837067,70.71561431884766,0.0003283059340901673
3130882.735,1475,1485,634014939,219.96,103152588,0.02195633202791214,-0.16537675261497498,70.71897888183594,-0.0005617334973067045
3130982.735,1475,1485,634014939,219.96,103152588,-0.009806214831769466,-0.16910800337791443,70.6826171875,-0.002375412732362747
3131082.735,1475,1485,634014940,219.95,103152593,-0.03176217898726463,-0.1803264617919922,70.66749572753906,-0.0042266808450222015
3131182.735,1475,1485,634014940,219.95,103152593,-0.03768417611718178,-0.16963085532188416,70.6897201538086,-0.005040185991674662
3131282.735,1475,1485,634014940,219.96,103152598,-0.021932978183031082,-0.17465709149837494,70.6948013305664,-0.0039578876458108425
3131382.735,1475,1485,634014940,219.96,103152598,0.0009499893058091402,-0.17388677597045898,70.6915512084961,-0.0023256049025803804
3131482.735,1475,1485,634014941,219.96,103152604,0.02374236285686493,-0.17203445732593536,70.67922973632812,-0.0013456202577799559
3131582.735,1475,1485,634014941,219.96,103152604,0.04804541915655136,-0.1623038798570633,70.66136932373047,-0.0010977168567478657
3131682.735,1475,1485,634014941,219.95,103152608,0.07989698648452759,-0.1465524435043335,70.67427062988281,-0.0009415998356416821
3131782.735,1475,1485,634014941,219.95,103152608,0.08295513689517975,-0.15095120668411255,70.73011779785156,0.0002472309279255569
3131882.735,1475,1485,634014942,219.93,103152612,0.06970323622226715,-0.1598467230796814,70.76594543457031,0.0010258355177938938
3131982.735,1475,1485,634014942,219.93,103152612,0.03533888980746269,-0.1714308112859726,70.76071166992188,0.00034670272725634277
3132082.735,1475,1485,634014943,219.93,103152616,-0.004039744846522808,-0.17650479078292847,70.76202392578125,-0.001405859598889947
3132182.735,1475,1485,634014943,219.93,103152616,-0.030261030420660973,-0.18269065022468567,70.75435638427734,-0.003150871256366372
3132282.735,1475,1485,634014944,219.94,103152620,-0.03318930044770241,-0.18187054991722107,70.7227783203125,-0.0041743856854736805
3132382.735,1475,1485,634014944,219.94,103152620,-0.028186172246932983,-0.1713772863149643,70.72040557861328,-0.00411354610696435
3132482.735,1475,1485,634014944,219.93,103152625,0.0016764386091381311,-0.1717645227909088,70.71849822998047,-0.003296250943094492
3132582.735,1475,1485,634014944,219.93,103152625,0.027802392840385437,-0.1695479452610016,70.71661376953125,-0.0027881336864084005
3132682.735,1475,1485,634014945,219.94,103152629,0.052591513842344284,-0.1569610834121704,70.69062042236328,-0.0013748614583164454
3132782.735,1475,1485,634014945,219.94,103152629,0.07556791603565216,-0.15297028422355652,70.68353271484375,0.00081223389133811
3132882.735,1475,1485,634014946,219.92,103152633,0.08746189624071121,-0.16830414533615112,70.69931030273438,0.0010902894427999854
3132982.735,1475,1485,634014946,219.92,103152633,0.06259939074516296,-0.16744574904441833,70.6839828491211,-0.0006334263016469777
3133082.735,1475,1485,634014947,219.92,103152637,0.025551769882440567,-0.1643182933330536,70.67684936523438,-0.0022162278182804585
3133182.735,1475,1485,634014947,219.92,103152637,-0.014027049764990807,-0.16737286746501923,70.66838836669922,-0.0024748356081545353
3133282.735,1475,1485,634014947,219.92,103152642,-0.02735912799835205,-0.16697335243225098,70.65699005126953,-0.0023583807051181793
3133382.735,1475,1485,634014947,219.92,103152642,-0.027689816430211067,-0.16944736242294312,70.63453674316406,-0.0028899263124912977
3133482.735,1475,1485,634014948,219.91,103152646,-0.013184008188545704,-0.16907833516597748,70.6052474975586,-0.003491797251626849
3133582.735,1475,1485,634014948,219.91,103152646,0.0017190129728987813,-0.17013025283813477,70.58895874023438,-0.0034486940130591393
3133682.735,1475,1485,634014949,219.91,103152649,0.030540525913238525,-0.16673262417316437,70.54998779296875,-0.002384079620242119
3133782.735,1475,1485,634014949,219.91,103152649,0.04914016276597977,-0.162810817360878,70.55838775634766,-0.001429717754945159
3133882.735,1475,1485,634014949,219.91,103152654,0.06328161060810089,-0.16203784942626953,70.57999420166016,-0.0005705253570340574
3133982.735,1475,1485,634014949,219.91,103152654,0.0652138739824295,-0.15745680034160614,70.62910461425781,-0.00015963069745339453
3134082.735,1475,1485,634014950,219.9,103152657,0.05632520839571953,-0.15858609974384308,70.62222290039062,-0.0007069443818181753
3134182.735,1475,1485,634014950,219.9,103152657,0.02995477244257927,-0.1675601452589035,70.61894989013672,-0.0010625409195199609
3134282.735,1475,1485,634014951,219.89,103152661,-0.0014607099583372474,-0.16959050297737122,70.60089111328125,-0.0016731265932321548
3134382.735,1475,1485,634014951,219.89,103152661,-0.02326083555817604,-0.17684663832187653,70.54009246826172,-0.0025891487020999193
3134482.735,1475,1485,634014952,219.89,103152665,-0.03430268168449402,-0.17260169982910156,70.51362609863281,-0.0033180725295096636
3134582.735,1475,1485,634014952,219.89,103152665,-0.017269540578126907,-0.16624519228935242,70.50369262695312,-0.002853450132533908
3134682.735,1475,1485,634014952,219.88,103152669,0.013185875490307808,-0.1690485179424286,70.44913482666016,-0.0019378146389499307
3134782.735,1475,1485,634014952,219.88,103152669,0.05034481734037399,-0.16739404201507568,70.42167663574219,-0.0016111884033307433
3134882.735,1475,1485,634014953,219.87,103152672,0.059239860624074936,-0.15941354632377625,70.45464324951172,-0.001121114008128643
3134982.735,1475,1485,634014953,219.87,103152672,0.07294154167175293,-0.16313037276268005,70.47309112548828,0.00009284041152568534
3135082.735,1475,1485,634014953,219.87,103152676,0.0698397159576416,-0.16013652086257935,70.45941162109375,0.0005124722956679761
3135182.735,1475,1485,634014953,219.87,103152676,0.040534608066082,-0.1646837592124939,70.44631958007812,-0.0005986759206280112
3135282.735,1475,1485,634014954,219.86,103152679,-0.0013240387197583914,-0.16936077177524567,70.41307067871094,-0.0023102895356714725
3135382.735,1475,1485,634014954,219.86,103152679,-0.026172034442424774,-0.17506861686706543,70.40422058105469,-0.003530870657414198
3135482.735,1475,1485,634014955,219.84,103152682,-0.037188369780778885,-0.16570137441158295,70.39629364013672,-0.003249605419114232
3135582.735,1475,1485,634014955,219.84,103152682,-0.009793410077691078,-0.16353929042816162,70.38469696044922,-0.0026399269700050354
3135682.735,1475,1485,634014955,219.84,103152685,0.017961937934160233,-0.17362765967845917,70.3849868774414,-0.0026360489428043365
3135782.735,1475,1485,634014955,219.84,103152685,0.037660226225852966,-0.1645437777042389,70.41259765625,-0.0027116003911942244
3135882.735,1475,1485,634014956,219.83,103152688,0.056989092379808426,-0.15705561637878418,70.45024871826172,-0.0016086200485005975
3135982.735,1475,1485,634014956,219.83,103152688,0.06914211809635162,-0.15995493531227112,70.47486114501953,0.00010185850987909362
3136082.735,1475,1485,634014956,219.82,103152691,0.06369340419769287,-0.16370445489883423,70.48592376708984,-0.0002473442000336945
3136182.735,1475,1485,634014956,219.82,103152691,0.03918176889419556,-0.16126738488674164,70.47412109375,-0.0019941586069762707
3136282.735,1475,1485,634014957,219.81,103152695,-0.004675608593970537,-0.16533444821834564,70.4407958984375,-0.0037260742392390966
3136382.735,1475,1485,634014957,219.81,103152695,-0.023860406130552292,-0.16824696958065033,70.42257690429688,-0.0038928950671106577
3136482.735,1475,1485,634014958,219.8,103152697,-0.020057249814271927,-0.1684308499097824,70.4267349243164,-0.0030582372564822435
3136582.735,1475,1485,634014958,219.8,103152697,0.0009763703565113246,-0.17330718040466309,70.43095397949219,-0.0027569748926907778
3136682.735,1475,1485,634014958,219.8,103152701,0.02082332968711853,-0.17322218418121338,70.44479370117188,-0.0028379573486745358
3136782.735,1475,1485,634014958,219.8,103152701,0.04435674101114273,-0.17278996109962463,70.43220520019531,-0.002893975004553795
3136882.735,1475,1485,634014959,219.79,103152704,0.05276098847389221,-0.16292458772659302,70.44315338134766,-0.0020318832248449326
3136982.735,1475,1485,634014959,219.79,103152704,0.05657418072223663,-0.16050614416599274,70.43177032470703,-0.0014877653447911143
3137082.735,1475,1485,634014959,219.78,103152706,0.04881931468844414,-0.15926939249038696,70.42107391357422,-0.001708985771983862
3137182.735,1475,1485,634014959,219.78,103152706,0.02926505170762539,-0.16044485569000244,70.44239044189453,-0.0023908172734081745
3137282.735,1475,1485,634014960,219.76,103152709,0.014964833855628967,-0.1749349683523178,70.42716979980469,-0.0026886893901973963
3137382.735,1475,1485,634014960,219.76,103152709,-0.0025404049083590508,-0.17881712317466736,70.4037857055664,-0.0029876474291086197
3137482.735,1475,1485,634014961,219.77,103152713,-0.008126522414386272,-0.17804020643234253,70.4078369140625,-0.003102985443547368
3137582.735,1475,1485,634014961,219.77,103152713,0.005944663658738136,-0.16713100671768188,70.41011810302734,-0.0035818200558423996
3137682.735,1475,1485,634014961,219.76,103152716,0.029689624905586243,-0.16569837927818298,70.39309692382812,-0.003398815169930458
3137782.735,1475,1485,634014961,219.76,103152716,0.04330452159047127,-0.15203966200351715,70.40945434570312,-0.0029179914854466915
3137882.735,1475,1485,634014962,219.75,103152718,0.04916449636220932,-0.16573463380336761,70.43595123291016,-0.002136980416253209
3137982.735,1475,1485,634014962,219.75,103152718,0.0606568418443203,-0.16598230600357056,70.50152587890625,-0.0014142205473035574
3138082.735,1475,1485,634014962,219.74,103152721,0.04753206670284271,-0.1666688323020935,70.52437591552734,-0.0020715976133942604
3138182.735,1475,1485,634014962,219.74,103152721,0.02699130028486252,-0.16292300820350647,70.48957061767578,-0.002844767877832055
3138282.735,1475,1485,634014963,219.73,103152723,-0.0005089780315756798,-0.16840122640132904,70.41885375976562,-0.00326385791413486
3138382.735,1475,1485,634014963,219.73,103152723,-0.005313882138580084,-0.16855484247207642,70.3460693359375,-0.003328791819512844
3138482.735,1475,1485,634014963,219.72,103152726,-0.008903040550649166,-0.16689234972000122,70.28971862792969,-0.0032023885287344456
3138582.735,1475,1485,634014963,219.72,103152726,0.010461470112204552,-0.16888800263404846,70.25260925292969,-0.0032008427660912275
3138682.735,1475,1485,634014964,219.72,103152728,0.032558221369981766,-0.17183531820774078,70.20199584960938,-0.002696266397833824
3138782.735,1475,1485,634014964,219.72,103152728,0.047435861080884933,-0.1722835898399353,70.17977905273438,-0.0025084184017032385
3138882.735,1475,1485,634014964,219.71,103152731,0.054842934012413025,-0.16862069070339203,70.14213562011719,-0.00237525487318635
3138982.735,1475,1485,634014964,219.71,103152731,0.052718933671712875,-0.16563472151756287,70.12804412841797,-0.002483666641637683
3139082.735,1475,1485,634014964,219.7,103152734,0.03936365991830826,-0.15475089848041534,70.10367584228516,-0.002658719662576914
3139182.735,1475,1485,634014964,219.7,103152734,0.013674111105501652,-0.15690962970256805,70.06717681884766,-0.002930029295384884
3139282.735,1475,1485,634014964,219.69,103152737,-0.0014505389844998717,-0.16528835892677307,70.0396499633789,-0.0026600330602377653
3139382.735,1475,1485,634014964,219.69,103152737,-0.00385815161280334,-0.17101356387138367,70.03057861328125,-0.002588029485195875
3139482.735,1475,1485,634014964,219.7,103152739,0.004769207909703255,-0.16670280694961548,70.00492095947266,-0.00340412650257349
3139582.735,1475,1485,634014964,219.7,103152739,0.024445049464702606,-0.16219240427017212,70.00428009033203,-0.0030441228300333023
3139682.735,1475,1485,634014964,219.69,103152742,0.04236563295125961,-0.16884061694145203,69.9778823852539,-0.0024034869857132435
3139782.735,1475,1485,634014964,219.69,103152742,0.05486708879470825,-0.16594399511814117,69.99420928955078,-0.002128009218722582
3139882.735,1475,1485,634014964,219.69,103152745,0.046946194022893906,-0.17347581684589386,70.00015258789062,-0.0017030752496793866
3139982.735,1475,1485,634014964,219.69,103152745,0.038465533405542374,-0.1688903272151947,69.98790740966797,-0.0020075293723493814
3140082.735,1475,1485,634014964,219.68,103152747,0.01381915993988514,-0.15787997841835022,69.96916198730469,-0.00190169143024832
3140182.735,1475,1485,634014964,219.68,103152747,0.011833754368126392,-0.16529138386249542,69.97393035888672,-0.002677279757335782
3140282.735,1475,1485,634014964,219.68,103152749,0.009855056181550026,-0.16778014600276947,69.94171142578125,-0.003321305615827441
3140382.735,1475,1485,634014964,219.68,103152749,0.006119259167462587,-0.17255359888076782,69.9295883178711,-0.003392736427485943
3140482.735,1475,1485,634014964,219.67,103152751,0.01194746047258377,-0.16684329509735107,69.92716217041016,-0.0027755124028772116
3140582.735,1475,1485,634014964,219.67,103152751,0.03655705600976944,-0.1596272587776184,69.92408752441406,-0.0013698094990104437
3140682.735,1475,1485,634014963,219.66,103152753,0.050043895840644836,-0.16777272522449493,69.9207534790039,-0.0014463148545473814
3140782.735,1475,1485,634014963,219.66,103152753,0.04670019820332527,-0.17450572550296783,69.9359130859375,-0.0019285229500383139
3140882.735,1475,1485,634014964,219.66,103152755,0.03499889001250267,-0.1625293344259262,69.94979858398438,-0.0024982860777527094
3140982.735,1475,1485,634014964,219.66,103152755,0.012540053576231003,-0.15961310267448425,69.96770477294922,-0.002042528707534075
3141082.735,1475,1485,634014964,219.66,103152758,0.011597322300076485,-0.16074201464653015,69.95655059814453,-0.002376234158873558
3141182.735,1475,1485,634014964,219.66,103152758,0.007720536552369595,-0.16446062922477722,69.951416015625,-0.0027236398309469223
3141282.735,1475,1485,634014964,219.65,103152760,0.011605089530348778,-0.16676482558250427,69.96798706054688,-0.0025056281592696905
3141382.735,1475,1485,634014964,219.65,103152760,0.02143077366054058,-0.16890917718410492,69.99334716796875,-0.0019993348978459835
3141482.735,1475,1485,634014964,219.64,103152762,0.034381747245788574,-0.1559741050004959,69.97289276123047,-0.001363310031592846
3141582.735,1475,1485,634014964,219.64,103152762,0.04010868817567825,-0.168112114071846,69.96471405029297,-0.0015938186552375555
3141682.735,1475,1485,634014964,219.64,103152765,0.05002725496888161,-0.17022815346717834,69.96309661865234,-0.001665878458879888
3141782.735,1475,1485,634014964,219.64,103152765,0.047415126115083694,-0.17125146090984344,69.9820556640625,-0.0023786392994225025
3141882.735,1475,1485,634014964,219.64,103152768,0.023180484771728516,-0.16102057695388794,70.00334167480469,-0.002396230585873127
3141982.735,1475,1485,634014964,219.64,103152768,0.012311308644711971,-0.1580129712820053,70.03448486328125,-0.001914778258651495
3142082.735,1475,1485,634014965,219.64,103152770,0.012830638326704502,-0.15941449999809265,70.04576110839844,-0.0012515828711912036
3142182.735,1475,1485,634014965,219.64,103152770,0.017875652760267258,-0.1696927845478058,70.02748107910156,-0.0019423585617914796
3142282.735,1475,1485,634014965,219.64,103152774,0.019439207389950752,-0.16408172249794006,70.03828430175781,-0.0029471921734511852
3142382.735,1475,1485,634014965,219.64,103152774,0.02450340799987316,-0.15595407783985138,70.04510498046875,-0.002235085004940629
3142482.735,1475,1485,634014966,219.64,103152776,0.03955558314919472,-0.16863523423671722,70.0848388671875,-0.0005562874721363187
3142582.735,1475,1485,634014966,219.64,103152776,0.05176063999533653,-0.17407380044460297,70.13555908203125,-0.0012730694143101573
3142682.735,1475,1485,634014966,219.63,103152779,0.0361340269446373,-0.17036950588226318,70.12854766845703,-0.0025385310873389244
3142782.735,1475,1485,634014966,219.63,103152779,0.02105465531349182,-0.16789817810058594,70.12759399414062,-0.002445436781272292
3142882.735,1475,1485,634014966,219.63,103152782,0.013851938769221306,-0.1586366444826126,70.14702606201172,-0.001180537510663271
3142982.735,1475,1485,634014966,219.63,103152782,0.019883545115590096,-0.16298820078372955,70.15414428710938,-0.000694205635227263
3143082.735,1475,1485,634014967,219.63,103152785,0.01427934505045414,-0.16410033404827118,70.16327667236328,-0.0018592048436403275
3143182.735,1475,1485,634014967,219.63,103152785,0.022802025079727173,-0.16457000374794006,70.1494140625,-0.0024552112445235252
3143282.735,1475,1485,634014967,219.62,103152788,0.026894832029938698,-0.15996238589286804,70.12763977050781,-0.0015325852436944842
3143382.735,1475,1485,634014967,219.62,103152788,0.03916964679956436,-0.16221795976161957,70.11121368408203,-0.0007513003656640649
3143482.735,1475,1485,634014967,219.62,103152791,0.04629431292414665,-0.1701364368200302,70.09864044189453,-0.001025087316520512
3143582.735,1475,1485,634014967,219.62,103152791,0.039127495139837265,-0.1689186841249466,70.11067199707031,-0.0012643090449273586
3143682.735,1475,1485,634014968,219.62,103152794,0.02354079857468605,-0.1662239134311676,70.12986755371094,-0.001354022417217493
3143782.735,1475,1485,634014968,219.62,103152794,0.01740606501698494,-0.16885684430599213,70.16040802001953,-0.001453491160646081
3143882.735,1475,1485,634014968,219.62,103152796,0.013574739918112755,-0.16355225443840027,70.16093444824219,-0.001222857623361051
3143982.735,1475,1485,634014968,219.62,103152796,0.012502862140536308,-0.16506221890449524,70.14068603515625,-0.0012725316919386387
3144082.735,1475,1485,634014968,219.62,103152799,0.02959125116467476,-0.16431446373462677,70.13243865966797,-0.0016308289486914873
3144182.735,1475,1485,634014968,219.62,103152799,0.027503667399287224,-0.15932247042655945,70.13201141357422,-0.00164783897344023
3144282.735,1475,1485,634014969,219.61,103152802,0.027249259874224663,-0.16057853400707245,70.15219116210938,-0.0006417498807422817
3144382.735,1475,1485,634014969,219.61,103152802,0.034614868462085724,-0.17171785235404968,70.14641571044922,-0.0002496220695320517
3144482.735,1475,1485,634014969,219.61,103152804,0.041319020092487335,-0.17314821481704712,70.14356994628906,-0.0012176629388704896
3144582.735,1475,1485,634014969,219.61,103152804,0.028962215408682823,-0.16996189951896667,70.12555694580078,-0.0018911582883447409
3144682.735,1475,1485,634014970,219.61,103152808,0.011937405914068222,-0.1659061312675476,70.12348937988281,-0.001856654998846352
3144782.735,1475,1485,634014970,219.61,103152808,0.018390579149127007,-0.16683316230773926,70.1351318359375,-0.0006182523793540895
3144882.735,1475,1485,634014970,219.61,103152809,0.02556157112121582,-0.15882056951522827,70.17048645019531,-0.000265468202996999
3144982.735,1475,1485,634014970,219.61,103152809,0.030387306585907936,-0.16508711874485016,70.19912719726562,-0.0004231214988976717
3145082.735,1475,1485,634014970,219.61,103152812,0.04286612570285797,-0.1640101671218872,70.20696258544922,-0.001332868356257677
3145182.735,1475,1485,634014970,219.61,103152812,0.024374360218644142,-0.16426855325698853,70.22220611572266,-0.0014641577145084739
3145282.735,1475,1485,634014971,219.6,103152815,0.030007362365722656,-0.16724428534507751,70.24539184570312,-0.00039307231782004237
3145382.735,1475,1485,634014971,219.6,103152815,0.026584571227431297,-0.16927120089530945,70.25467681884766,-0.0006407903274521232
3145482.735,1475,1485,634014971,219.61,103152817,0.027348268777132034,-0.16868382692337036,70.28019714355469,-0.0015492767561227083
3145582.735,1475,1485,634014971,219.61,103152817,0.018880892544984818,-0.1656297892332077,70.2936782836914,-0.0014733795542269945
3145682.735,1475,1485,634014972,219.6,103152820,0.01944591850042343,-0.15884891152381897,70.30487060546875,-0.0006840263959020376
3145782.735,1475,1485,634014972,219.6,103152820,0.032706376165151596,-0.17176848649978638,70.30113983154297,-0.0002656237338669598
3145882.735,1475,1485,634014972,219.61,103152822,0.035276178270578384,-0.17118433117866516,70.29859161376953,-0.0004202249110676348
3145982.735,1475,1485,634014972,219.61,103152822,0.02596847526729107,-0.1718912124633789,70.32855224609375,-0.0008600695291534066
3146082.735,1475,1485,634014973,219.6,103152824,0.02355930767953396,-0.1638682633638382,70.30892944335938,-0.0011856142664328218
3146182.735,1475,1485,634014973,219.6,103152824,0.022748732939362526,-0.1579270362854004,70.31905364990234,-0.0008423923864029348
3146282.735,1475,1485,634014973,219.61,103152827,0.03317771479487419,-0.16972388327121735,70.31627655029297,-0.0008777949842624366
3146382.735,1475,1485,634014973,219.61,103152827,0.03009202517569065,-0.16902199387550354,70.3093490600586,-0.0014960215194150805
