timestamp(ms),RCIN.C1,RCIN.C3,GPS.Lat,GPS.Alt,GPS.Lng,IMU.AccX,IMU.AccY,DCM.Yaw,IMU.GyrZ
3472142.829,1484,1470,634016282,219.58,103159020,0.0036135544069111347,-0.17085562646389008,63.26214599609375,-0.013217277824878693
3472242.829,1484,1470,634016283,219.58,103159019,0.008982118219137192,-0.16961070895195007,63.18745040893555,-0.013797832652926445
3472342.829,1484,1470,634016283,219.58,103159019,0.014162002131342888,-0.1729280650615692,63.09798049926758,-0.014318844303488731
3472442.829,1484,1470,634016282,219.58,103159018,0.03422697260975838,-0.15469099581241608,63.01103973388672,-0.014936714433133602
3472542.829,1484,1470,634016282,219.58,103159018,0.04960188269615173,-0.15600264072418213,62.918216705322266,-0.015234655700623989
3472642.829,1484,1470,634016282,219.57,103159017,0.052007436752319336,-0.1602824330329895,62.8421630859375,-0.014840729534626007
3472742.829,1484,1470,634016282,219.57,103159017,0.04859760031104088,-0.1669187843799591,62.76023483276367,-0.01418075431138277
3472842.829,1484,1470,634016282,219.57,103159016,0.03613483905792236,-0.17106127738952637,62.68239212036133,-0.013137055560946465
3472942.829,1484,1470,634016282,219.57,103159016,0.019598521292209625,-0.1702292561531067,62.58161926269531,-0.01306577492505312
3473042.829,1484,1470,634016282,219.57,103159015,0.015665225684642792,-0.16628897190093994,62.49238967895508,-0.013167353346943855
3473142.829,1484,1470,634016282,219.57,103159015,0.014796934090554714,-0.16115574538707733,62.413719177246094,-0.01344586443156004
3473242.829,1484,1470,634016282,219.56,103159014,0.020145215094089508,-0.15489347279071808,62.320465087890625,-0.013880770653486252
3473342.829,1484,1470,634016282,219.56,103159014,0.026992052793502808,-0.16268180310726166,62.23444747924805,-0.013762842863798141
3473442.829,1484,1470,634016282,219.56,103159014,0.03926011547446251,-0.1620497852563858,62.134132385253906,-0.01318651158362627
3473542.829,1484,1470,634016282,219.56,103159014,0.040269315242767334,-0.1592305600643158,62.042510986328125,-0.012498937547206879
3473642.829,1484,1470,634016281,219.56,103159013,0.04543164372444153,-0.1710033416748047,61.94902038574219,-0.012561067938804626
3473742.829,1484,1470,634016281,219.56,103159013,0.03229847550392151,-0.16756494343280792,61.86144256591797,-0.013024267740547657
3473842.829,1484,1470,634016282,219.56,103159013,0.02559911645948887,-0.16801908612251282,61.7778205871582,-0.013150322251021862
3473942.829,1484,1470,634016282,219.56,103159013,0.01923588663339615,-0.1547275185585022,61.69639205932617,-0.012163830921053886
3474042.829,1484,1470,634016281,219.56,103159012,0.011467564851045609,-0.15168333053588867,61.64864730834961,-0.011624395847320557
3474142.829,1484,1470,634016281,219.56,103159012,0.020575203001499176,-0.15499922633171082,61.56724548339844,-0.011603864841163158
3474242.829,1484,1470,634016281,219.56,103159011,0.030429590493440628,-0.16362103819847107,61.47466278076172,-0.011851580813527107
3474342.829,1484,1470,634016281,219.56,103159011,0.04323628544807434,-0.15624700486660004,61.397544860839844,-0.012062628753483295
3474442.829,1484,1470,634016281,219.55,103159011,0.05362192541360855,-0.16917242109775543,61.33231735229492,-0.01192585751414299
3474542.829,1484,1470,634016281,219.55,103159011,0.04152092710137367,-0.17153657972812653,61.20824432373047,-0.012138290330767632
3474642.829,1484,1470,634016281,219.55,103159010,0.03201894834637642,-0.16801688075065613,61.10944747924805,-0.01205663662403822
3474742.829,1484,1470,634016281,219.55,103159010,0.012845313176512718,-0.16209480166435242,60.99933624267578,-0.01130045484751463
3474842.829,1484,1470,634016281,219.56,103159009,-0.0009171251440420747,-0.15808206796646118,60.94541931152344,-0.010184848681092262
3474942.829,1484,1470,634016281,219.56,103159009,0.01074947789311409,-0.15942096710205078,60.88401794433594,-0.009276065975427628
3475042.829,1484,1470,634016281,219.56,103159008,0.026029517874121666,-0.16198326647281647,60.84129333496094,-0.009632784873247147
3475142.829,1484,1470,634016281,219.56,103159008,0.04895230382680893,-0.15961845219135284,60.774131774902344,-0.010117590427398682
3475242.829,1484,1470,634016281,219.55,103159007,0.05726059153676033,-0.16379322111606598,60.7201042175293,-0.010292978957295418
3475342.829,1484,1472,634016281,219.55,103159007,0.05238714441657066,-0.16248229146003723,60.62751388549805,-0.010318147018551826
3475442.829,1484,1472,634016281,219.55,103159006,0.03950069099664688,-0.16349820792675018,60.546966552734375,-0.010801391676068306
3475542.829,1484,1472,634016281,219.55,103159006,0.018855229020118713,-0.16713252663612366,60.48225784301758,-0.010373646393418312
3475642.829,1484,1472,634016280,219.55,103159006,0.007976565510034561,-0.166911318898201,60.44960403442383,-0.009956961497664452
3475742.829,1482,1472,634016280,219.55,103159006,-0.0029169837944209576,-0.15702930092811584,60.431182861328125,-0.008711693808436394
3475842.829,1482,1472,634016280,219.55,103159005,0.018521040678024292,-0.16203966736793518,60.344661712646484,-0.008189327083528042
3475942.829,1482,1472,634016280,219.55,103159005,0.04563383758068085,-0.15645627677440643,60.293182373046875,-0.008664163760840893
3476042.829,1482,1472,634016280,219.55,103159004,0.058835312724113464,-0.15476542711257935,60.249874114990234,-0.008531393483281136
3476142.829,1482,1472,634016280,219.55,103159004,0.05632396787405014,-0.16157667338848114,60.183197021484375,-0.008789779618382454
3476242.829,1497,1472,634016280,219.55,103159003,0.04403788596391678,-0.16507776081562042,60.14646530151367,-0.009365439414978027
3476342.829,1497,1472,634016280,219.55,103159003,0.02859293296933174,-0.16998644173145294,60.08325958251953,-0.009109404869377613
3476442.829,1504,1472,634016280,219.55,103159002,0.008586903102695942,-0.17647051811218262,60.01477813720703,-0.00837196409702301
3476542.829,1504,1472,634016280,219.55,103159002,0.008498255163431168,-0.17052215337753296,59.97760772705078,-0.007734783459454775
3476642.829,1504,1472,634016280,219.55,103159001,0.01352914422750473,-0.1601327508687973,59.91319274902344,-0.006561447866261005
3476742.829,1498,1472,634016280,219.55,103159001,0.027703139930963516,-0.15490147471427917,59.865211486816406,-0.006266179494559765
3476842.829,1498,1472,634016279,219.55,103159000,0.04158865660429001,-0.15563903748989105,59.82170867919922,-0.007140443194657564
3476942.829,1498,1472,634016279,219.55,103159000,0.04314820095896721,-0.15544387698173523,59.764747619628906,-0.007545669563114643
3477042.829,1498,1472,634016279,219.54,103158999,0.03983850032091141,-0.1550690084695816,59.691253662109375,-0.007838394492864609
3477142.829,1498,1472,634016279,219.54,103158999,0.033336345106363297,-0.16685932874679565,59.658851623535156,-0.007110034115612507
3477242.829,1498,1472,634016279,219.54,103158998,0.03335902839899063,-0.1694222390651703,59.6119270324707,-0.007057279348373413
3477342.829,1500,1472,634016279,219.54,103158998,0.026106730103492737,-0.1731826663017273,59.54949951171875,-0.006711449474096298
3477442.829,1500,1472,634016279,219.54,103158998,0.017877455800771713,-0.1653369963169098,59.493568420410156,-0.006686156149953604
3477542.829,1500,1472,634016279,219.54,103158998,0.01740238256752491,-0.16014215350151062,59.4605827331543,-0.006256546825170517
3477642.829,1500,1472,634016279,219.54,103158997,0.01549149863421917,-0.15871107578277588,59.41041564941406,-0.005771040916442871
3477742.829,1500,1472,634016279,219.54,103158997,0.030387602746486664,-0.1559567153453827,59.3580436706543,-0.0051554846577346325
3477842.829,1479,1472,634016278,219.54,103158996,0.04619257152080536,-0.16641543805599213,59.32019805908203,-0.004887241870164871
3477942.829,1479,1472,634016278,219.54,103158996,0.0547795370221138,-0.1758086234331131,59.254920959472656,-0.004882782232016325
3478042.829,1479,1472,634016278,219.54,103158995,0.049671147018671036,-0.1722932606935501,59.24571990966797,-0.0054610371589660645
3478142.829,1479,1472,634016278,219.54,103158995,0.02954176813364029,-0.16500858962535858,59.226043701171875,-0.005652162712067366
3478242.829,1479,1472,634016278,219.54,103158994,0.007129890378564596,-0.16521799564361572,59.206199645996094,-0.00498737208545208
3478342.829,1479,1472,634016278,219.54,103158994,0.00008998202974908054,-0.1673106998205185,59.17985534667969,-0.004440986085683107
3478442.829,1479,1472,634016278,219.54,103158993,0.01334517914801836,-0.16336168348789215,59.16999435424805,-0.003722102614119649
3478542.829,1479,1472,634016278,219.54,103158993,0.03767780959606171,-0.16417713463306427,59.16642761230469,-0.004298723768442869
3478642.829,1479,1472,634016278,219.53,103158993,0.05202988162636757,-0.155770406126976,59.13144302368164,-0.005100291222333908
3478742.829,1479,1472,634016278,219.53,103158993,0.054632045328617096,-0.1570219099521637,59.08144760131836,-0.005467857234179974
3478842.829,1479,1472,634016277,219.54,103158993,0.03744414448738098,-0.1590510755777359,59.0323600769043,-0.004825353156775236
3478942.829,1479,1472,634016277,219.54,103158993,0.026594748720526695,-0.16645096242427826,59.00346755981445,-0.0035019286442548037
3479042.829,1479,1472,634016277,219.53,103158993,0.016884826123714447,-0.17332351207733154,58.99747085571289,-0.002374922391027212
3479142.829,1479,1472,634016277,219.53,103158993,0.017833281308412552,-0.1705549657344818,58.98665237426758,-0.002917713252827525
3479242.829,1479,1472,634016277,219.54,103158993,0.021045099943876266,-0.1651514768600464,58.987266540527344,-0.0035445315297693014
3479342.829,1479,1472,634016277,219.54,103158993,0.035163864493370056,-0.1710284799337387,58.98711395263672,-0.0036832294426858425
3479442.829,1479,1472,634016276,219.54,103158992,0.042724646627902985,-0.15980073809623718,58.960533142089844,-0.0033214627765119076
3479542.829,1493,1472,634016276,219.54,103158992,0.044945165514945984,-0.16264420747756958,58.92237854003906,-0.0025410219095647335
3479642.829,1493,1472,634016276,219.54,103158991,0.03265610337257385,-0.16515688598155975,58.87745666503906,-0.0019396388670429587
3479742.829,1499,1472,634016276,219.54,103158991,0.026666056364774704,-0.1612044721841812,58.83823013305664,-0.0017567817121744156
3479842.829,1499,1472,634016277,219.54,103158990,0.02012389898300171,-0.15836961567401886,58.832035064697266,-0.0017961969133466482
3479942.829,1499,1472,634016277,219.54,103158990,0.02395128272473812,-0.1623186469078064,58.78531265258789,-0.0028486563824117184
3480042.829,1499,1472,634016276,219.54,103158990,0.028386428952217102,-0.16102024912834167,58.73142623901367,-0.00345410592854023
3480142.829,1499,1472,634016276,219.54,103158990,0.02923283725976944,-0.15401439368724823,58.72356033325195,-0.0035488430876284838
3480242.829,1499,1472,634016276,219.54,103158989,0.02782370336353779,-0.16074052453041077,58.67661666870117,-0.00298159453086555
3480342.829,1499,1472,634016276,219.54,103158989,0.027187075465917587,-0.1645040661096573,58.677024841308594,-0.0017489970196038485
3480442.829,1499,1472,634016276,219.54,103158988,0.03399697691202164,-0.17023062705993652,58.653564453125,-0.0013078402262181044
3480542.829,1499,1472,634016276,219.54,103158988,0.03536703437566757,-0.17409759759902954,58.65895080566406,-0.0011761500500142574
3480642.829,1499,1472,634016275,219.54,103158988,0.04177895188331604,-0.16897186636924744,58.689300537109375,-0.0014517416711896658
3480742.829,1499,1472,634016275,219.54,103158988,0.042224496603012085,-0.1707049459218979,58.67863845825195,-0.0018099162261933088
3480842.829,1499,1472,634016275,219.54,103158987,0.03089052438735962,-0.16759274899959564,58.7143440246582,-0.001129810349084437
3480942.829,1499,1472,634016275,219.54,103158987,0.034081973135471344,-0.16458582878112793,58.703163146972656,-0.00026984571013599634
3481042.829,1499,1472,634016275,219.55,103158987,0.025433093309402466,-0.15984615683555603,58.68143081665039,-0.00006887294875923544
3481142.829,1499,1472,634016275,219.55,103158987,0.030744042247533798,-0.16162800788879395,58.66061782836914,-0.000010698960977606475
3481242.829,1499,1472,634016275,219.55,103158988,0.026322461664676666,-0.16340479254722595,58.66673278808594,-0.000898919883184135
3481342.829,1522,1472,634016275,219.55,103158988,0.02978898026049137,-0.16650064289569855,58.657020568847656,-0.001848762040026486
3481442.829,1522,1472,634016275,219.57,103158988,0.025976594537496567,-0.1585824191570282,58.66434860229492,-0.002115225652232766
3481542.829,1577,1472,634016275,219.57,103158988,0.025749675929546356,-0.16022002696990967,58.609413146972656,-0.0012033594539389014
3481642.829,1577,1472,634016274,219.57,103158988,-0.06764329224824905,-0.15625064074993134,58.634944915771484,0.000022393285689759068
3481742.829,1617,1472,634016274,219.57,103158988,0.052297864109277725,-0.11797918379306793,58.73370361328125,0.016880065202713013
3481842.829,1617,1472,634016273,219.58,103158988,-0.14706304669380188,-0.10212162882089615,58.98593521118164,0.04921118542551994
3481942.829,1617,1472,634016273,219.58,103158988,-0.3995695412158966,-0.014932384714484215,59.54852294921875,0.09370257705450058
3482042.829,1617,1472,634016272,219.59,103158985,-0.34469789266586304,-0.0374353751540184,60.3955078125,0.15327802300453186
3482142.829,1617,1472,634016272,219.59,103158985,-0.24248862266540527,-0.06185438856482506,61.59234619140625,0.20990125834941864
3482242.829,1617,1472,634016270,219.59,103158981,-0.2775111198425293,-0.0696478933095932,63.066410064697266,0.26319441199302673
3482342.829,1617,1472,634016270,219.59,103158981,-0.20637813210487366,-0.13372883200645447,64.87440490722656,0.3158852756023407
3482442.829,1617,1472,634016267,219.59,103158974,-0.1945371776819229,-0.1685662716627121,66.9433822631836,0.366348534822464
3482542.829,1617,1472,634016267,219.59,103158974,-0.126017227768898,-0.18969890475273132,69.24579620361328,0.4100288152694702
3482642.829,1617,1472,634016265,219.6,103158965,-0.13258983194828033,-0.24212612211704254,71.7327880859375,0.4416213035583496
3482742.829,1617,1472,634016265,219.6,103158965,-0.11142973601818085,-0.26801931858062744,74.34042358398438,0.463537335395813
3482842.829,1617,1472,634016262,219.61,103158957,-0.09775011241436005,-0.29471641778945923,77.07569885253906,0.48072436451911926
3482942.829,1617,1472,634016262,219.61,103158957,-0.13728278875350952,-0.2897302210330963,79.86471557617188,0.49476662278175354
3483042.829,1617,1472,634016261,219.61,103158947,-0.10302187502384186,-0.3130788505077362,82.74000549316406,0.5094272494316101
3483142.829,1617,1472,634016261,219.61,103158947,-0.12816590070724487,-0.30470216274261475,85.71273803710938,0.5259646773338318
3483242.829,1617,1472,634016260,219.61,103158934,-0.06033044680953026,-0.36083728075027466,88.74935913085938,0.5385764241218567
3483342.829,1617,1472,634016260,219.61,103158934,-0.050729453563690186,-0.3708685636520386,91.81114196777344,0.5428568124771118
3483442.829,1617,1472,634016261,219.62,103158923,-0.04717124253511429,-0.3609137237071991,94.92890167236328,0.5431954860687256
3483542.829,1617,1472,634016261,219.62,103158923,-0.08037266135215759,-0.37065693736076355,98.02213287353516,0.5462871789932251
3483642.829,1617,1472,634016261,219.63,103158910,-0.12811344861984253,-0.3692074418067932,101.1231689453125,0.552168607711792
3483742.829,1617,1472,634016261,219.63,103158910,-0.07040520012378693,-0.37552782893180847,104.2991714477539,0.5595238208770752
3483842.829,1617,1472,634016263,219.65,103158898,-0.07963540405035019,-0.35530543327331543,107.47804260253906,0.5565366744995117
3483942.829,1617,1472,634016263,219.65,103158898,-0.0688508003950119,-0.31369465589523315,110.59379577636719,0.5476410984992981
3484042.829,1617,1472,634016264,219.66,103158888,-0.0377102792263031,-0.3027556538581848,113.71825408935547,0.5375103950500488
3484142.829,1617,1472,634016264,219.66,103158888,-0.022699877619743347,-0.3563598096370697,116.7543716430664,0.5289046764373779
3484242.829,1617,1472,634016267,219.68,103158875,-0.020212773233652115,-0.32546448707580566,119.74421691894531,0.5210552215576172
3484342.829,1617,1472,634016267,219.68,103158875,-0.07577826082706451,-0.3229290246963501,122.70742797851562,0.5143224000930786
3484442.829,1617,1472,634016271,219.68,103158864,-0.0858437567949295,-0.3655407130718231,125.66179656982422,0.5113171339035034
3484542.829,1617,1472,634016271,219.68,103158864,-0.07078766077756882,-0.3708339035511017,128.6333465576172,0.5065342783927917
3484642.829,1617,1472,634016276,219.7,103158857,-0.062428079545497894,-0.32385578751564026,131.50242614746094,0.4953573942184448
3484742.829,1617,1472,634016276,219.7,103158857,-0.0636928379535675,-0.38220542669296265,134.30679321289062,0.48447057604789734
3484842.829,1617,1472,634016281,219.71,103158849,-0.053134579211473465,-0.3713751435279846,137.03599548339844,0.4731743037700653
3484942.829,1617,1472,634016281,219.71,103158849,-0.008218549191951752,-0.3118157982826233,139.74278259277344,0.45876526832580566
3485042.829,1617,1472,634016287,219.74,103158842,-0.011536028236150742,-0.2924237549304962,142.3976287841797,0.4503869414329529
3485142.829,1617,1472,634016287,219.74,103158842,0.04982297867536545,-0.283047616481781,145.09255981445312,0.45058757066726685
3485242.829,1617,1472,634016294,219.77,103158835,0.08920273184776306,-0.305695503950119,147.76773071289062,0.44821104407310486
3485342.829,1617,1472,634016294,219.77,103158835,0.025688832625746727,-0.3128146231174469,150.31570434570312,0.44011104106903076
3485442.829,1617,1472,634016301,219.8,103158830,-0.01989973522722721,-0.3203216791152954,152.85865783691406,0.43614625930786133
3485542.829,1782,1472,634016301,219.8,103158830,-0.6496544480323792,-0.03209971264004707,155.6583709716797,0.46901726722717285
3485642.829,1782,1472,634016310,219.83,103158822,-0.6373398900032043,-0.526282548904419,159.50718688964844,0.6313879489898682
3485742.829,1782,1472,634016310,219.83,103158822,0.027946049347519875,-0.23552048206329346,163.97512817382812,0.7326918840408325
3485842.829,1782,1472,634016320,219.88,103158818,-0.20586812496185303,-0.13975661993026733,168.6723175048828,0.7751332521438599
3485942.829,1782,1472,634016320,219.88,103158818,0.04689868912100792,-0.6272321939468384,173.53662109375,0.8115979433059692
3486042.829,1782,1472,634016331,219.9,103158819,-0.16261887550354004,-0.516949474811554,178.61895751953125,0.8489156365394592
3486142.829,1782,1472,634016331,219.9,103158819,-0.0038619614206254482,-0.673704981803894,183.82601928710938,0.8764066696166992
3486242.829,1782,1472,634016342,219.92,103158825,-0.11025815457105637,-0.800999641418457,189.14004516601562,0.8991849422454834
3486342.829,1782,1472,634016342,219.92,103158825,-0.12843862175941467,-0.6885062456130981,194.5166015625,0.8974787592887878
3486442.829,1779,1472,634016353,219.94,103158833,-0.10945618152618408,-0.6760107278823853,199.72378540039062,0.8988246917724609
3486542.829,1494,1472,634016353,219.94,103158833,0.2531079649925232,-0.9728583693504333,204.88111877441406,0.8763188123703003
3486642.829,1494,1472,634016362,219.95,103158844,0.9485756158828735,-0.576185941696167,208.90576171875,0.6839367151260376
3486742.829,1494,1472,634016362,219.95,103158844,0.32803601026535034,-0.49310341477394104,211.82391357421875,0.5103258490562439
3486842.829,1494,1472,634016369,219.97,103158857,0.4415357708930969,-0.7107687592506409,214.31094360351562,0.4319705367088318
3486942.829,1494,1472,634016369,219.97,103158857,0.2504187822341919,-0.44144490361213684,216.38938903808594,0.37086331844329834
3487042.829,1494,1472,634016375,219.99,103158870,0.2925165295600891,-0.32704591751098633,218.20115661621094,0.31080687046051025
3487142.829,1494,1472,634016375,219.99,103158870,0.08705544471740723,-0.3036508858203888,219.79678344726562,0.26993876695632935
3487242.829,1494,1472,634016380,219.99,103158881,0.2536415457725525,-0.20076090097427368,221.20860290527344,0.2371683418750763
3487342.829,1494,1472,634016380,219.99,103158881,0.2117343693971634,-0.13935482501983643,222.40322875976562,0.19565720856189728
3487442.829,1494,1472,634016384,220,103158892,0.2267083078622818,-0.16815468668937683,223.36705017089844,0.1583620309829712
3487542.829,1494,1472,634016384,220,103158892,0.17241276800632477,-0.12836802005767822,224.2517547607422,0.14368200302124023
3487642.829,1494,1472,634016388,220,103158903,0.22597980499267578,-0.19794784486293793,225.10140991210938,0.14105507731437683
3487742.829,1494,1472,634016388,220,103158903,0.1859952211380005,-0.32130157947540283,225.8616180419922,0.12709003686904907
3487842.829,1574,1472,634016392,220,103158914,0.16558519005775452,-0.23897677659988403,226.47373962402344,0.10319218039512634
3487942.829,1631,1472,634016392,220,103158914,0.018566764891147614,-0.14737612009048462,227.0072479248047,0.08318082988262177
3488042.829,1651,1472,634016397,220.01,103158925,0.048627495765686035,-0.10694753378629684,227.59950256347656,0.08745430409908295
3488142.829,1504,1472,634016397,220.01,103158925,-0.0770818367600441,-0.07666478306055069,228.2906036376953,0.10604235529899597
3488242.829,1484,1472,634016400,220,103158935,-0.030772939324378967,-0.14709042012691498,229.08572387695312,0.12676751613616943
3488342.829,1504,1472,634016400,220,103158935,0.24512606859207153,-0.21774637699127197,229.75570678710938,0.10783347487449646
3488442.829,1598,1472,634016404,220.01,103158945,0.09557057172060013,-0.08298680186271667,230.2064666748047,0.07382319122552872
3488542.829,1598,1472,634016404,220.01,103158945,0.09038867056369781,-0.18347278237342834,230.6100311279297,0.0639813095331192
3488642.829,1799,1472,634016408,220.02,103158957,0.07487937808036804,-0.18639948964118958,231.16925048828125,0.08220654726028442
3488742.829,1796,1472,634016408,220.02,103158957,0.1500975489616394,-0.1396041065454483,231.8770294189453,0.11304038763046265
3488842.829,1518,1472,634016412,220.03,103158967,-0.1876228153705597,-0.03705602511763573,232.70040893554688,0.132378488779068
3488942.829,1510,1472,634016412,220.03,103158967,0.15152724087238312,-0.0924503430724144,234.2364501953125,0.24006393551826477
3489042.829,1542,1472,634016416,220.02,103158978,0.05713539943099022,-0.4299822449684143,235.70333862304688,0.25059524178504944
3489142.829,1749,1472,634016416,220.02,103158978,0.3598122298717499,-0.24001391232013702,236.76251220703125,0.18695712089538574
3489242.829,1504,1472,634016421,220.02,103158991,-1.5859500169754028,0.1452987939119339,237.92845153808594,0.19298520684242249
3489342.829,1504,1472,634016421,220.02,103158991,-1.6910604238510132,-0.2642073333263397,239.96951293945312,0.3369273543357849
3489442.829,1485,1495,634016428,220.03,103159011,0.25667107105255127,-0.3571638762950897,242.33494567871094,0.40993639826774597
3489542.829,1485,1508,634016428,220.03,103159011,0.05232534185051918,-0.37796416878700256,244.20071411132812,0.3274451792240143
3489642.829,1485,1508,634016432,220.02,103159028,0.22680775821208954,-0.5421942472457886,245.8027801513672,0.26984280347824097
3489742.829,1485,1680,634016432,220.02,103159028,0.3309192359447479,-0.3504329323768616,247.34690856933594,0.25141242146492004
3489842.829,1485,1680,634016437,220.03,103159045,0.6567603945732117,-0.3153618574142456,248.81063842773438,0.24708756804466248
3489942.829,1485,1754,634016437,220.03,103159045,0.8517603874206543,-0.4293883442878723,250.21646118164062,0.24298036098480225
3490042.829,1485,1752,634016439,220.04,103159058,0.8147706389427185,-0.2528999447822571,251.52685546875,0.22742241621017456
3490142.829,1488,1577,634016439,220.04,103159058,2.4143972396850586,-0.09231431782245636,252.84109497070312,0.22490788996219635
3490242.829,1488,1577,634016440,220.05,103159058,1.629159688949585,-0.18074442446231842,254.12448120117188,0.2138180136680603
3490342.829,1489,1560,634016440,220.05,103159058,0.9129748344421387,-0.1362379491329193,255.30848693847656,0.19541698694229126
3490442.829,1489,1673,634016441,220.04,103159056,0.6947095394134521,-0.015877684578299522,256.4140930175781,0.1938466578722
3490542.829,1486,1542,634016441,220.04,103159056,1.521017074584961,-0.11922106146812439,257.48065185546875,0.2033601701259613
3490642.829,1486,1542,634016441,220.04,103159045,1.5395288467407227,-0.08466260135173798,258.66387939453125,0.2079441249370575
3490742.829,1472,1504,634016441,220.04,103159045,0.6696519255638123,-0.0031267255544662476,259.8768615722656,0.20672929286956787
3490842.829,1317,1500,634016441,220.04,103159030,0.32815656065940857,-0.061162158846855164,261.04241943359375,0.19389639794826508
3490942.829,1317,1500,634016441,220.04,103159030,0.6814815998077393,-0.2500965893268585,261.8729553222656,0.15528859198093414
3491042.829,1267,1500,634016441,220.04,103159009,1.3506197929382324,-0.3563182055950165,262.0651550292969,0.05322936549782753
3491142.829,1257,1500,634016441,220.04,103159009,1.3245335817337036,-0.3547206521034241,261.7885437011719,-0.04854646697640419
3491242.829,1453,1500,634016439,220.05,103158982,0.41220569610595703,-0.44041311740875244,261.1983642578125,-0.1138017326593399
3491342.829,1474,1500,634016439,220.05,103158982,-0.30661526322364807,-0.35861197113990784,260.68756103515625,-0.11251769959926605
3491442.829,1476,1500,634016438,220.04,103158958,-0.032395150512456894,-0.1709793210029602,260.5195617675781,-0.037876714020967484
3491542.829,1477,1500,634016438,220.04,103158958,-0.44140806794166565,0.006320151966065168,260.5838928222656,0.011385641992092133
3491642.829,1478,1499,634016437,220.04,103158934,-0.3352934718132019,-0.18592005968093872,260.7651672363281,0.03488481044769287
3491742.829,1479,1498,634016437,220.04,103158934,-0.27410733699798584,-0.20143616199493408,260.89373779296875,0.03103165701031685
3491842.829,1494,1498,634016436,220.05,103158915,-0.050548192113637924,-0.14631813764572144,260.8846130371094,0.005443080794066191
3491942.829,1499,1498,634016436,220.05,103158915,-0.052610818296670914,-0.30827414989471436,260.7507629394531,-0.023525018244981766
3492042.829,1500,1498,634016435,220.08,103158895,0.014396637678146362,-0.2409432828426361,260.53399658203125,-0.04511695355176926
3492142.829,1501,1498,634016435,220.08,103158895,-0.04530714452266693,-0.10319437831640244,260.2803955078125,-0.05420093238353729
3492242.829,1501,1498,634016434,220.06,103158874,-0.17746706306934357,-0.18476253747940063,260.08148193359375,-0.04619981348514557
3492342.829,1501,1493,634016434,220.06,103158874,-0.18449434638023376,-0.13890016078948975,259.95404052734375,-0.02714427560567856
3492442.829,1501,1493,634016433,220.06,103158855,-0.11963259428739548,-0.1999354511499405,259.8549499511719,-0.015918636694550514
3492542.829,1501,1493,634016433,220.06,103158855,-0.050249435007572174,-0.3353620171546936,259.7021484375,-0.020803138613700867
3492642.829,1501,1493,634016432,220.07,103158837,0.01516714133322239,-0.34551531076431274,259.4713134765625,-0.03758625686168671
3492742.829,1501,1493,634016432,220.07,103158837,0.03876590356230736,-0.2804640531539917,259.14501953125,-0.056979529559612274
3492842.829,1501,1493,634016430,220.07,103158820,-0.027246907353401184,-0.2312721312046051,258.7834167480469,-0.06966428458690643
3492942.829,1501,1493,634016430,220.07,103158820,-0.045640211552381516,-0.15252503752708435,258.42315673828125,-0.07178401201963425
3493042.829,1501,1493,634016429,220.07,103158802,-0.09129754453897476,-0.08583621680736542,258.0938415527344,-0.06533226370811462
3493142.829,1501,1493,634016429,220.07,103158802,-0.08124314248561859,-0.17996364831924438,257.7984313964844,-0.056598860770463943
3493242.829,1501,1493,634016427,220.08,103158786,-0.06925269961357117,-0.19518911838531494,257.5162353515625,-0.05069323629140854
3493342.829,1501,1493,634016427,220.08,103158786,-0.05458510294556618,-0.22357623279094696,257.2486877441406,-0.047818463295698166
3493442.829,1501,1493,634016425,220.07,103158770,-0.06357621401548386,-0.2626883089542389,257.0111083984375,-0.04631074517965317
3493542.829,1501,1493,634016425,220.07,103158770,-0.04049573093652725,-0.24460764229297638,256.78387451171875,-0.043682899326086044
3493642.829,1501,1493,634016424,220.09,103158756,-0.03339749574661255,-0.22268855571746826,256.559814453125,-0.042289942502975464
3493742.829,1501,1493,634016424,220.09,103158756,-0.0194056648761034,-0.18159274756908417,256.31787109375,-0.04291002079844475
3493842.829,1501,1493,634016422,220.08,103158741,-0.024759331718087196,-0.1480054408311844,256.06927490234375,-0.044341251254081726
3493942.829,1501,1493,634016422,220.08,103158741,-0.015623407438397408,-0.12984415888786316,255.86102294921875,-0.04382573440670967
3494042.829,1501,1493,634016420,220.09,103158727,-0.031813446432352066,-0.16928771138191223,255.6557159423828,-0.04271968454122543
3494142.829,1501,1493,634016420,220.09,103158727,-0.03538304567337036,-0.17188313603401184,255.4806365966797,-0.039667725563049316
3494242.829,1501,1493,634016419,220.1,103158713,-0.05515538156032562,-0.182778000831604,255.32318115234375,-0.03364204615354538
3494342.829,1501,1493,634016419,220.1,103158713,-0.04592331871390343,-0.2027994692325592,255.20562744140625,-0.026035422459244728
3494442.829,1501,1493,634016417,220.09,103158699,-0.016855433583259583,-0.19255930185317993,255.10433959960938,-0.021411921828985214
3494542.829,1501,1493,634016417,220.09,103158699,0.016919048503041267,-0.20479756593704224,254.99310302734375,-0.024403221905231476
3494642.829,1501,1493,634016416,220.1,103158685,0.009921379387378693,-0.1934918761253357,254.8302459716797,-0.030882298946380615
3494742.829,1501,1493,634016416,220.1,103158685,-0.013954672031104565,-0.16591987013816833,254.6597137451172,-0.03441332280635834
3494842.829,1501,1493,634016414,220.1,103158672,-0.036040615290403366,-0.13275979459285736,254.5184783935547,-0.032945770770311356
3494942.829,1501,1493,634016414,220.1,103158672,-0.046729229390621185,-0.1506713330745697,254.39926147460938,-0.02799472212791443
3495042.829,1501,1493,634016412,220.1,103158659,-0.032169368118047714,-0.1530793160200119,254.31787109375,-0.02348269149661064
3495142.829,1501,1493,634016412,220.1,103158659,-0.017171327024698257,-0.16851921379566193,254.23776245117188,-0.020066507160663605
3495242.829,1501,1493,634016410,220.1,103158646,-0.0012260100338608027,-0.19432862102985382,254.17324829101562,-0.01751330867409706
3495342.829,1501,1493,634016410,220.1,103158646,0.015489313751459122,-0.19622455537319183,254.0945587158203,-0.0177055224776268
3495442.829,1501,1493,634016409,220.1,103158633,0.01338038221001625,-0.21913564205169678,254.00416564941406,-0.019398687407374382
3495542.829,1501,1493,634016409,220.1,103158633,0.0009533737320452929,-0.18226033449172974,253.9129638671875,-0.021736830472946167
3495642.829,1501,1493,634016407,220.1,103158621,-0.0069592418149113655,-0.15031245350837708,253.81796264648438,-0.02288750745356083
3495742.829,1501,1493,634016407,220.1,103158621,-0.020951122045516968,-0.1341044306755066,253.6999969482422,-0.02282240055501461
3495842.829,1501,1493,634016405,220.11,103158609,-0.039249811321496964,-0.1295231729745865,253.5995330810547,-0.02114630676805973
3495942.829,1501,1493,634016405,220.11,103158609,-0.03581640124320984,-0.14547748863697052,253.538818359375,-0.016475994139909744
3496042.829,1501,1493,634016403,220.1,103158598,-0.014952423050999641,-0.16475360095500946,253.49530029296875,-0.012019762769341469
3496142.829,1501,1493,634016403,220.1,103158598,0.01750505156815052,-0.20320039987564087,253.43080139160156,-0.010911969467997551
3496242.829,1501,1493,634016401,220.09,103158586,0.03629683703184128,-0.19812661409378052,253.38137817382812,-0.014763368293642998
3496342.829,1501,1493,634016401,220.09,103158586,0.03279511630535126,-0.2003593146800995,253.31817626953125,-0.019553717225790024
3496442.829,1501,1493,634016399,220.1,103158575,0.0030654282309114933,-0.18219614028930664,253.2485809326172,-0.020630918443202972
3496542.829,1501,1493,634016399,220.1,103158575,-0.006771809421479702,-0.16373763978481293,253.17984008789062,-0.018470626324415207
3496642.829,1501,1493,634016398,220.1,103158565,-0.023820869624614716,-0.14259368181228638,253.11985778808594,-0.015492063015699387
3496742.829,1501,1493,634016398,220.1,103158565,-0.017524590715765953,-0.13059663772583008,253.076904296875,-0.012539563700556755
3496842.829,1501,1493,634016396,220.1,103158554,-0.0073706782422959805,-0.1578022688627243,253.03549194335938,-0.010286029428243637
3496942.829,1501,1493,634016396,220.1,103158554,-0.0034798956476151943,-0.17647701501846313,252.98342895507812,-0.00956045649945736
3497042.829,1501,1493,634016394,220.11,103158545,0.0028974241577088833,-0.18697451055049896,252.93258666992188,-0.010387849994003773
3497142.829,1501,1493,634016394,220.11,103158545,0.015926726162433624,-0.18922948837280273,252.87191772460938,-0.012452259659767151
3497242.829,1501,1493,634016392,220.12,103158535,0.017585687339305878,-0.16936197876930237,252.81307983398438,-0.01448278408497572
3497342.829,1501,1493,634016392,220.12,103158535,0.005941410083323717,-0.16327662765979767,252.75267028808594,-0.014839747920632362
3497442.829,1501,1493,634016390,220.12,103158525,-0.0007021142519079149,-0.15439161658287048,252.69500732421875,-0.013168847188353539
3497542.829,1501,1493,634016390,220.12,103158525,0.000024272156224469654,-0.1572498381137848,252.6587677001953,-0.010396042838692665
3497642.829,1501,1493,634016389,220.13,103158517,-0.012412451207637787,-0.1587408483028412,252.63455200195312,-0.007291460409760475
3497742.829,1501,1493,634016389,220.13,103158517,-0.009670085273683071,-0.1640169620513916,252.62437438964844,-0.004957446828484535
3497842.829,1501,1493,634016387,220.14,103158508,-0.0007240542909130454,-0.1706891655921936,252.60763549804688,-0.00521567277610302
3497942.829,1501,1493,634016387,220.14,103158508,0.017073877155780792,-0.1810768097639084,252.5679931640625,-0.007238453719764948
3498042.829,1501,1493,634016386,220.14,103158500,0.015626121312379837,-0.1742279827594757,252.53732299804688,-0.009927237406373024
3498142.829,1501,1493,634016386,220.14,103158500,0.008795592933893204,-0.15152326226234436,252.50286865234375,-0.010611063800752163
3498242.829,1501,1493,634016384,220.16,103158491,-0.00007512782030971721,-0.14961077272891998,252.50247192382812,-0.0076958732679486275
3498342.829,1501,1493,634016384,220.16,103158491,0.004415076691657305,-0.14500956237316132,252.49362182617188,-0.003253787290304899
3498442.829,1501,1493,634016383,220.15,103158482,0.0027325800620019436,-0.16323412954807281,252.50732421875,0.00011797982733696699
3498542.829,1501,1493,634016383,220.15,103158482,0.016475556418299675,-0.15314313769340515,252.5325927734375,0.001301022246479988
3498642.829,1501,1493,634016382,220.17,103158474,0.010866214521229267,-0.17579413950443268,252.56004333496094,-0.0005847255233675241
3498742.829,1501,1493,634016382,220.17,103158474,0.004485466983169317,-0.16538392007350922,252.57577514648438,-0.003160151420161128
3498842.829,1501,1493,634016381,220.19,103158466,-0.005380634684115648,-0.1649848222732544,252.57119750976562,-0.00507653784006834
3498942.829,1501,1493,634016381,220.19,103158466,-0.0013647008454427123,-0.16190466284751892,252.54437255859375,-0.005034234840422869
3499042.829,1501,1493,634016380,220.21,103158459,-0.0011287678498774767,-0.1622985601425171,252.56869506835938,-0.003163582645356655
3499142.829,1501,1493,634016380,220.21,103158459,0.006131923291832209,-0.15234005451202393,252.60012817382812,-0.0009865353349596262
3499242.829,1490,1493,634016379,220.24,103158451,0.026917601004242897,-0.15548689663410187,252.6332550048828,0.0015447738114744425
3499342.829,1498,1493,634016379,220.24,103158451,0.01812957040965557,-0.17027848958969116,252.6627197265625,0.0018218319164589047
3499442.829,1492,1493,634016378,220.25,103158444,0.02872193232178688,-0.1660134494304657,252.67556762695312,-0.00001581321339472197
3499542.829,1486,1493,634016378,220.25,103158444,-0.006518286187201738,-0.17729724943637848,252.63839721679688,-0.0034898053854703903
3499642.829,1486,1493,634016376,220.27,103158436,0.008835852146148682,-0.18566244840621948,252.60476684570312,-0.004046953283250332
3499742.829,1486,1493,634016376,220.27,103158436,0.0007963810348883271,-0.1420811414718628,252.60421752929688,-0.0034740471746772528
3499842.829,1486,1493,634016376,220.28,103158429,0.007386051118373871,-0.16773547232151031,252.63128662109375,-0.00129021389875561
3499942.829,1486,1493,634016376,220.28,103158429,0.003783691441640258,-0.15154342353343964,252.66061401367188,0.0015148803358897567
3500042.829,1486,1493,634016375,220.3,103158423,0.016496097669005394,-0.14352907240390778,252.720703125,0.0037759311962872744
3500142.829,1486,1493,634016375,220.3,103158423,0.012476596981287003,-0.1627069115638733,252.7410888671875,0.004163793288171291
3500242.829,1486,1493,634016374,220.31,103158416,0.02044423669576645,-0.16873615980148315,252.74713134765625,0.0016079875640571117
3500342.829,1486,1493,634016374,220.31,103158416,0.021743107587099075,-0.1665874421596527,252.72625732421875,-0.0013963042292743921
3500442.829,1486,1493,634016374,220.33,103158410,0.012433692812919617,-0.17216278612613678,252.73397827148438,-0.0021657238248735666
3500542.829,1486,1493,634016374,220.33,103158410,0.005588073283433914,-0.16491013765335083,252.73658752441406,-0.001475106575526297
3500642.829,1486,1493,634016373,220.35,103158404,0.005018928553909063,-0.14892899990081787,252.7675018310547,0.0007955100736580789
3500742.829,1486,1493,634016373,220.35,103158404,-0.0013928645057603717,-0.15847831964492798,252.81307983398438,0.003433853155001998
3500842.829,1486,1493,634016372,220.36,103158397,0.016097329556941986,-0.15952223539352417,252.8768310546875,0.005333351902663708
3500942.829,1486,1493,634016372,220.36,103158397,0.03230707347393036,-0.16063903272151947,252.9461212158203,0.006048576906323433
3501042.829,1486,1493,634016371,220.38,103158392,0.036953140050172806,-0.17525961995124817,252.98941040039062,0.005162371322512627
3501142.829,1486,1493,634016371,220.38,103158392,0.027904748916625977,-0.16805651783943176,253.00277709960938,0.0022780951112508774
3501242.829,1486,1493,634016370,220.4,103158385,0.009115886874496937,-0.15565229952335358,252.99732971191406,0.00006124750507296994
3501342.829,1486,1493,634016370,220.4,103158385,-0.002484089694917202,-0.15332001447677612,253.02130126953125,0.0003542274935171008
3501442.829,1486,1493,634016370,220.41,103158380,-0.009101616218686104,-0.14476917684078217,253.04910278320312,0.0036757267080247402
3501542.829,1486,1493,634016370,220.41,103158380,0.0033546905033290386,-0.14878234267234802,253.11831665039062,0.00800480879843235
3501642.829,1486,1493,634016369,220.44,103158374,0.01971440762281418,-0.16979190707206726,253.180908203125,0.00991068035364151
3501742.829,1483,1493,634016369,220.44,103158374,0.03513658791780472,-0.17934739589691162,253.25546264648438,0.0076451376080513
3501842.829,1483,1493,634016369,220.44,103158368,0.03103296458721161,-0.17399846017360687,253.28663635253906,0.0035055424086749554
3501942.829,1478,1493,634016369,220.44,103158368,0.01928313635289669,-0.17175626754760742,253.28964233398438,0.000302820437354967
3502042.829,1478,1493,634016368,220.46,103158363,0.01221713237464428,-0.15927773714065552,253.29934692382812,-0.000444242061348632
3502142.829,1478,1493,634016368,220.46,103158363,0.004675493109971285,-0.14533287286758423,253.32147216796875,0.0014505399158224463
3502242.829,1473,1493,634016368,220.48,103158358,0.009242469444870949,-0.14873838424682617,253.37974548339844,0.004715933930128813
3502342.829,1475,1493,634016368,220.48,103158358,0.016749944537878036,-0.15160682797431946,253.44509887695312,0.007355717942118645
3502442.829,1475,1493,634016367,220.49,103158351,0.02450259029865265,-0.1708446443080902,253.50506591796875,0.006713460199534893
3502542.829,1476,1493,634016367,220.49,103158351,0.023383526131510735,-0.17562581598758698,253.56350708007812,0.004283647518604994
3502642.829,1476,1493,634016366,220.51,103158346,0.029079493135213852,-0.1740124672651291,253.59225463867188,0.002370694186538458
3502742.829,1476,1493,634016366,220.51,103158346,0.020490122959017754,-0.1709720939397812,253.62367248535156,0.000366629334166646
3502842.829,1476,1493,634016364,220.53,103158341,0.01319614052772522,-0.1549512892961502,253.64096069335938,-0.00013829547970090061
3502942.829,1480,1493,634016364,220.53,103158341,0.005184453446418047,-0.1443680226802826,253.67080688476562,0.0020729531534016132
3503042.829,1480,1493,634016363,220.56,103158335,0.008360054343938828,-0.15095314383506775,253.7146759033203,0.004535921849310398
3503142.829,1480,1493,634016363,220.56,103158335,0.021224137395620346,-0.1561259776353836,253.74850463867188,0.005243710707873106
3503242.829,1480,1493,634016362,220.58,103158330,0.02286062389612198,-0.15892386436462402,253.7760467529297,0.0033933441154658794
3503342.829,1480,1493,634016362,220.58,103158330,0.02662064880132675,-0.17340542376041412,253.806884765625,0.0004093416209798306
3503442.829,1480,1493,634016362,220.6,103158326,0.019587280228734016,-0.1683712601661682,253.82223510742188,-0.0018813915085047483
3503542.829,1480,1493,634016362,220.6,103158326,0.014146951958537102,-0.173635333776474,253.82540893554688,-0.002494666026905179
3503642.829,1480,1493,634016361,220.61,103158320,0.010297310538589954,-0.17184165120124817,253.79600524902344,-0.0014394710306078196
3503742.829,1480,1493,634016361,220.61,103158320,0.025999944657087326,-0.1719817966222763,253.82650756835938,0.0008678132435306907
3503842.829,1480,1493,634016361,220.63,103158315,0.029223090037703514,-0.16145718097686768,253.83074951171875,0.002301524393260479
3503942.829,1480,1493,634016361,220.63,103158315,0.02599640190601349,-0.15558330714702606,253.82525634765625,0.002043738029897213
3504042.829,1480,1493,634016360,220.64,103158310,0.021033603698015213,-0.1595713347196579,253.83224487304688,0.0005154401296749711
3504142.829,1480,1493,634016360,220.64,103158310,0.005546947009861469,-0.1567065417766571,253.84014892578125,-0.0013883799547329545
3504242.829,1480,1493,634016360,220.66,103158306,0.009187349118292332,-0.16355374455451965,253.84588623046875,-0.003217526711523533
3504342.829,1480,1493,634016360,220.66,103158306,0.017926685512065887,-0.1672605574131012,253.8427276611328,-0.003835092531517148
3504442.829,1480,1493,634016359,220.67,103158300,0.025700196623802185,-0.16478213667869568,253.8704833984375,-0.0026426813565194607
3504542.829,1480,1493,634016359,220.67,103158300,0.02661568857729435,-0.16508667171001434,253.89456176757812,-0.0006098063895478845
3504642.829,1480,1493,634016359,220.68,103158296,0.03709705173969269,-0.16220635175704956,253.92930603027344,0.0005246383370831609
3504742.829,1480,1493,634016359,220.68,103158296,0.035764046013355255,-0.1665092259645462,253.91903686523438,-0.0007335773552767932
3504842.829,1480,1493,634016358,220.7,103158291,0.02513602003455162,-0.15770705044269562,253.89877319335938,-0.002910568146035075
3504942.829,1480,1493,634016358,220.7,103158291,0.013348064385354519,-0.1611679643392563,253.88375854492188,-0.004126019310206175
3505042.829,1480,1493,634016357,220.7,103158285,0.00987736415117979,-0.17467235028743744,253.8892822265625,-0.004019159823656082
3505142.829,1480,1493,634016357,220.7,103158285,0.010689632967114449,-0.1742458939552307,253.8996124267578,-0.002417153213173151
3505242.829,1480,1493,634016356,220.72,103158280,0.014656728133559227,-0.1728067398071289,253.9375762939453,-0.0010845682118088007
3505342.829,1480,1493,634016356,220.72,103158280,0.027661707252264023,-0.15876351296901703,253.94970703125,-0.0005481133121065795
3505442.829,1480,1493,634016355,220.75,103158276,0.03749614581465721,-0.1490212380886078,253.94461059570312,-0.0005294265574775636
3505542.829,1480,1493,634016355,220.75,103158276,0.0331941656768322,-0.1537068635225296,253.9337158203125,-0.0015487483469769359
3505642.829,1480,1493,634016355,220.76,103158270,0.02050893008708954,-0.15193836390972137,253.91348266601562,-0.003427759977057576
3505742.829,1480,1493,634016355,220.76,103158270,0.011980004608631134,-0.16375058889389038,253.89158630371094,-0.004511717706918716
3505842.829,1480,1493,634016355,220.77,103158265,0.01033911295235157,-0.17350701987743378,253.86770629882812,-0.00454294215887785
3505942.829,1480,1493,634016355,220.77,103158265,0.009973526000976562,-0.1755639612674713,253.8583984375,-0.002906065434217453
3506042.829,1480,1493,634016354,220.78,103158261,0.026189086958765984,-0.18331199884414673,253.86813354492188,-0.0010498522315174341
3506142.829,1480,1493,634016354,220.78,103158261,0.04148271679878235,-0.1734834760427475,253.8730926513672,-0.0004376400029286742
3506242.829,1480,1493,634016354,220.8,103158256,0.039311256259679794,-0.16104313731193542,253.877685546875,-0.001611559302546084
3506342.829,1480,1493,634016354,220.8,103158256,0.02101675420999527,-0.1389162242412567,253.85848999023438,-0.0031277877278625965
3506442.829,1480,1493,634016354,220.8,103158252,0.009746789000928402,-0.1369556486606598,253.82736206054688,-0.003692944999784231
3506542.829,1480,1493,634016354,220.8,103158252,0.002995142014697194,-0.14485158026218414,253.8096923828125,-0.0036395234055817127
3506642.829,1480,1493,634016353,220.81,103158247,0.004598658997565508,-0.16509756445884705,253.81103515625,-0.0026773649733513594
3506742.829,1480,1493,634016353,220.81,103158247,0.015097763389348984,-0.1841520518064499,253.83819580078125,-0.0020852924790233374
3506842.829,1480,1493,634016353,220.82,103158242,0.021102193742990494,-0.1959432065486908,253.87924194335938,-0.001444633468054235
3506942.829,1480,1493,634016353,220.82,103158242,0.03725338727235794,-0.18982449173927307,253.9058837890625,-0.0014273780398070812
3507042.829,1480,1493,634016352,220.84,103158238,0.039592139422893524,-0.17071035504341125,253.91217041015625,-0.0021181204356253147
3507142.829,1480,1493,634016352,220.84,103158238,0.03521982580423355,-0.14011146128177643,253.91481018066406,-0.0033309170976281166
3507242.829,1480,1493,634016351,220.85,103158234,0.022605054080486298,-0.13001734018325806,253.89498901367188,-0.004133785609155893
3507342.829,1480,1493,634016351,220.85,103158234,0.006764921359717846,-0.13160015642642975,253.86666870117188,-0.003891961183398962
3507442.829,1480,1493,634016351,220.86,103158229,-0.0030485845636576414,-0.15959590673446655,253.8408966064453,-0.0028697196394205093
3507542.829,1480,1493,634016351,220.86,103158229,0.0076978919096291065,-0.1920487880706787,253.83258056640625,-0.0023211506195366383
3507642.829,1480,1493,634016351,220.87,103158226,0.031996600329875946,-0.20327308773994446,253.82080078125,-0.0022939364425837994
3507742.829,1480,1493,634016351,220.87,103158226,0.04924454540014267,-0.19462504982948303,253.79640197753906,-0.0033913713414222
3507842.829,1480,1493,634016349,220.89,103158221,0.04690110683441162,-0.16783912479877472,253.78085327148438,-0.0036857719533145428
3507942.829,1480,1493,634016349,220.89,103158221,0.037759363651275635,-0.14523597061634064,253.77438354492188,-0.0035615270026028156
3508042.829,1480,1493,634016349,220.9,103158217,0.013089986518025398,-0.13648918271064758,253.76930236816406,-0.0032988388556987047
3508142.829,1480,1493,634016349,220.9,103158217,0.0002717110619414598,-0.13794587552547455,253.76806640625,-0.0033566593192517757
3508242.829,1480,1493,634016349,220.91,103158213,0.00016331314691342413,-0.1517680287361145,253.75100708007812,-0.0034276661463081837
3508342.829,1480,1493,634016349,220.91,103158213,0.00692859198898077,-0.17357216775417328,253.73013305664062,-0.003732167650014162
3508442.829,1480,1493,634016349,220.92,103158209,0.024504272267222404,-0.18661847710609436,253.71524047851562,-0.0038066855631768703
3508542.829,1480,1493,634016349,220.92,103158209,0.04541180655360222,-0.19320173561573029,253.70343017578125,-0.004103321116417646
3508642.829,1480,1493,634016349,220.93,103158205,0.055342692881822586,-0.17680686712265015,253.71873474121094,-0.004152687266469002
3508742.829,1480,1493,634016349,220.93,103158205,0.04326820746064186,-0.1555313766002655,253.7310028076172,-0.0037582155782729387
3508842.829,1480,1493,634016348,220.94,103158200,0.028079096227884293,-0.14094991981983185,253.72972106933594,-0.00293322978541255
3508942.829,1480,1493,634016348,220.94,103158200,0.009352044202387333,-0.14424237608909607,253.72601318359375,-0.0022246045991778374
3509042.829,1480,1493,634016348,220.95,103158197,0.0014868725556880236,-0.15577730536460876,253.71484375,-0.002714131958782673
3509142.829,1480,1493,634016348,220.95,103158197,0.004819284658879042,-0.17246398329734802,253.6922607421875,-0.0034382634330540895
3509242.829,1480,1493,634016348,220.96,103158192,0.014108598232269287,-0.17753469944000244,253.65414428710938,-0.004432979505509138
3509342.829,1480,1493,634016348,220.96,103158192,0.029073044657707214,-0.1759122908115387,253.63311767578125,-0.004119213204830885
3509442.829,1480,1493,634016348,220.97,103158188,0.04615328833460808,-0.1686490774154663,253.6210479736328,-0.003113835584372282
3509542.829,1480,1493,634016348,220.97,103158188,0.04949430748820305,-0.15910795331001282,253.60110473632812,-0.002502072835341096
3509642.829,1480,1493,634016348,220.99,103158185,0.04147316515445709,-0.15375468134880066,253.57012939453125,-0.0026721442118287086
3509742.829,1480,1493,634016348,220.99,103158185,0.021532554179430008,-0.15159067511558533,253.54025268554688,-0.003540022997185588
3509842.829,1480,1493,634016348,220.99,103158181,0.010478716343641281,-0.16201302409172058,253.49342346191406,-0.004041466396301985
3509942.829,1480,1493,634016348,220.99,103158181,0.004821129143238068,-0.18000797927379608,253.45773315429688,-0.003605213016271591
3510042.829,1480,1493,634016347,221,103158177,0.012220154516398907,-0.17483524978160858,253.4473876953125,-0.0034620657097548246
3510142.829,1480,1493,634016347,221,103158177,0.025094743818044662,-0.17106091976165771,253.44467163085938,-0.003082351526245475
3510242.829,1480,1493,634016347,221.01,103158173,0.03421536833047867,-0.15875762701034546,253.44024658203125,-0.003403495065867901
3510342.829,1480,1493,634016347,221.01,103158173,0.033160943537950516,-0.14394214749336243,253.43344116210938,-0.0027580433525145054
3510442.829,1480,1493,634016347,221.02,103158170,0.04456520453095436,-0.15221823751926422,253.42532348632812,-0.002514803083613515
3510542.829,1480,1493,634016347,221.02,103158170,0.03244777023792267,-0.16321730613708496,253.411865234375,-0.0027976930141448975
3510642.829,1480,1493,634016347,221.02,103158166,0.024179568514227867,-0.1734503209590912,253.39981079101562,-0.0038603965658694506
3510742.829,1480,1493,634016347,221.02,103158166,0.019456565380096436,-0.18034617602825165,253.38381958007812,-0.004448991734534502
3510842.829,1480,1493,634016346,221.03,103158162,0.011252966709434986,-0.18470430374145508,253.36659240722656,-0.0032821400091052055
3510942.829,1480,1493,634016346,221.03,103158162,0.021910855546593666,-0.16589027643203735,253.3604736328125,-0.002563436748459935
3511042.829,1480,1493,634016346,221.03,103158158,0.029497681185603142,-0.1497739851474762,253.35890197753906,-0.0024038604460656643
3511142.829,1480,1493,634016346,221.03,103158158,0.0358157753944397,-0.14455395936965942,253.34619140625,-0.002915601944550872
3511242.829,1480,1493,634016345,221.04,103158154,0.03281445801258087,-0.14237292110919952,253.33990478515625,-0.0032056912314146757
3511342.829,1480,1493,634016345,221.04,103158154,0.03610767424106598,-0.1619628667831421,253.33905029296875,-0.002909500850364566
3511442.829,1480,1493,634016345,221.04,103158151,0.028435183688998222,-0.1782626211643219,253.32183837890625,-0.0029717597644776106
3511542.829,1480,1493,634016345,221.04,103158151,0.018335022032260895,-0.18326511979103088,253.29257202148438,-0.003619355382397771
3511642.829,1480,1493,634016344,221.05,103158147,0.01966843754053116,-0.17892514169216156,253.26806640625,-0.0034424145705997944
3511742.829,1480,1493,634016344,221.05,103158147,0.024340827018022537,-0.16084375977516174,253.26905822753906,-0.0027228444814682007
3511842.829,1480,1493,634016344,221.05,103158143,0.02598538249731064,-0.1520128697156906,253.28514099121094,-0.0021186773665249348
3511942.829,1480,1493,634016344,221.05,103158143,0.026458747684955597,-0.15197083353996277,253.27032470703125,-0.0026113002095371485
3512042.829,1480,1493,634016344,221.06,103158140,0.031522005796432495,-0.14872749149799347,253.2355194091797,-0.003725361078977585
3512142.829,1480,1493,634016344,221.06,103158140,0.020045123994350433,-0.15869168937206268,253.22891235351562,-0.0035130297765135765
3512242.829,1480,1493,634016344,221.07,103158136,0.02158096618950367,-0.17403104901313782,253.22682189941406,-0.0022855461575090885
3512342.829,1480,1493,634016344,221.07,103158136,0.02171919494867325,-0.18029731512069702,253.20713806152344,-0.002046955283731222
3512442.829,1480,1493,634016343,221.08,103158133,0.02261095494031906,-0.17688369750976562,253.18167114257812,-0.002702307654544711
3512542.829,1480,1493,634016343,221.08,103158133,0.023497100919485092,-0.1577547788619995,253.15028381347656,-0.003422446083277464
3512642.829,1480,1493,634016343,221.06,103158128,0.024998784065246582,-0.1484413743019104,253.11654663085938,-0.0037646456621587276
3512742.829,1480,1493,634016343,221.06,103158128,0.027933448553085327,-0.148281067609787,253.10601806640625,-0.0032625719904899597
3512842.829,1480,1493,634016342,221.06,103158124,0.030421623960137367,-0.16234168410301208,253.08847045898438,-0.0028352290391921997
3512942.829,1480,1493,634016342,221.06,103158124,0.02976163476705551,-0.1815916895866394,253.06231689453125,-0.003151558106765151
3513042.829,1480,1493,634016342,221.07,103158120,0.018429802730679512,-0.16800403594970703,253.05198669433594,-0.002880154876038432
3513142.829,1480,1493,634016342,221.07,103158120,0.016486849635839462,-0.17100542783737183,253.05258178710938,-0.002494034357368946
3513242.829,1480,1493,634016341,221.07,103158116,0.014313255436718464,-0.15788768231868744,253.0318603515625,-0.0019036628073081374
3513342.829,1480,1493,634016341,221.07,103158116,0.0216381773352623,-0.15016570687294006,252.99978637695312,-0.0027921826113015413
3513442.829,1480,1493,634016341,221.07,103158111,0.03481629490852356,-0.1580917239189148,252.96514892578125,-0.003873643931001425
3513542.829,1480,1493,634016341,221.07,103158111,0.026084281504154205,-0.1615869104862213,252.94952392578125,-0.0035726239439100027
3513642.829,1480,1493,634016340,221.06,103158107,0.02956715039908886,-0.16417089104652405,252.95068359375,-0.003149244701489806
3513742.829,1480,1493,634016340,221.06,103158107,0.027335183694958687,-0.1690756231546402,252.92994689941406,-0.002582527231425047
3513842.829,1480,1493,634016340,221.07,103158104,0.02393167093396187,-0.17307844758033752,252.90823364257812,-0.002846137620508671
3513942.829,1480,1493,634016340,221.07,103158104,0.02209608070552349,-0.17337283492088318,252.89828491210938,-0.0035595782101154327
3514042.829,1480,1493,634016340,221.07,103158100,0.0185649786144495,-0.16387459635734558,252.88519287109375,-0.0030360117089003325
3514142.829,1480,1493,634016340,221.07,103158100,0.02964048460125923,-0.16058483719825745,252.87933349609375,-0.003255437593907118
3514242.829,1480,1493,634016340,221.08,103158096,0.03771667927503586,-0.16621896624565125,252.85745239257812,-0.003169822506606579
3514342.829,1480,1493,634016340,221.08,103158096,0.040510814636945724,-0.15372931957244873,252.8414306640625,-0.0035777504090219736
3514442.829,1480,1493,634016339,221.08,103158093,0.031172748655080795,-0.15281960368156433,252.84902954101562,-0.0031787140760570765
3514542.829,1480,1493,634016339,221.08,103158093,0.02163473702967167,-0.1580866575241089,252.83607482910156,-0.002766259014606476
3514642.829,1480,1493,634016339,221.08,103158089,0.014430176466703415,-0.1603313833475113,252.82730102539062,-0.002468936378136277
3514742.829,1480,1493,634016339,221.08,103158089,0.012048942968249321,-0.17726150155067444,252.81265258789062,-0.0030526011250913143
3514842.829,1480,1493,634016338,221.09,103158085,0.019086804240942,-0.17293140292167664,252.79132080078125,-0.004830716177821159
3514942.829,1480,1493,634016338,221.09,103158085,0.029218483716249466,-0.16195693612098694,252.79794311523438,-0.005022427998483181
3515042.829,1480,1493,634016338,221.09,103158082,0.04112281650304794,-0.15225180983543396,252.81781005859375,-0.0037499009631574154
3515142.829,1480,1493,634016338,221.09,103158082,0.038169123232364655,-0.16116930544376373,252.80581665039062,-0.002330819610506296
3515242.829,1480,1493,634016337,221.09,103158078,0.0264980997890234,-0.16335365176200867,252.7848663330078,-0.002850439865142107
3515342.829,1480,1493,634016337,221.09,103158078,0.0241304412484169,-0.16903159022331238,252.7745819091797,-0.003943207673728466
3515442.829,1480,1493,634016337,221.1,103158076,0.01814073696732521,-0.1694972962141037,252.76187133789062,-0.004569420125335455
3515542.829,1480,1493,634016337,221.1,103158076,0.02159356325864792,-0.16906601190567017,252.73875427246094,-0.00456936564296484
3515642.829,1480,1493,634016337,221.11,103158071,0.025731688365340233,-0.1605231761932373,252.71176147460938,-0.00457571679726243
3515742.829,1480,1493,634016337,221.11,103158071,0.028161179274320602,-0.15904012322425842,252.69912719726562,-0.003975496627390385
3515842.829,1480,1493,634016336,221.11,103158069,0.028770817443728447,-0.1576715111732483,252.6902618408203,-0.0030697467736899853
3515942.829,1480,1493,634016336,221.11,103158069,0.022989552468061447,-0.1564161330461502,252.68017578125,-0.0028049261309206486
3516042.829,1480,1493,634016336,221.12,103158066,0.032432883977890015,-0.171003058552742,252.6572723388672,-0.003906548488885164
3516142.829,1480,1493,634016336,221.12,103158066,0.027677729725837708,-0.17213408648967743,252.63507080078125,-0.005426277406513691
3516242.829,1480,1493,634016336,221.12,103158063,0.02884712815284729,-0.17042452096939087,252.60369873046875,-0.006182328797876835
3516342.829,1480,1493,634016336,221.12,103158063,0.027503034099936485,-0.1706300526857376,252.57626342773438,-0.005139627493917942
3516442.829,1480,1493,634016335,221.14,103158060,0.026363540440797806,-0.15636004507541656,252.58914184570312,-0.0032442850060760975
3516542.829,1480,1493,634016335,221.14,103158060,0.02578212134540081,-0.14898493885993958,252.58944702148438,-0.0023585325106978416
3516642.829,1480,1493,634016335,221.13,103158057,0.028897687792778015,-0.15470214188098907,252.57443237304688,-0.0029474846087396145
3516742.829,1480,1493,634016335,221.13,103158057,0.031278595328330994,-0.17211347818374634,252.55303955078125,-0.004581197630614042
3516842.829,1480,1493,634016334,221.15,103158054,0.02647697739303112,-0.18099841475486755,252.55206298828125,-0.005772029515355825
3516942.829,1480,1493,634016334,221.15,103158054,0.02261827141046524,-0.16977398097515106,252.55209350585938,-0.006022521760314703
3517042.829,1480,1493,634016334,221.15,103158051,0.026672635227441788,-0.1658312827348709,252.54354858398438,-0.005028692074120045
3517142.829,1480,1493,634016334,221.15,103158051,0.030123848468065262,-0.15346887707710266,252.52578735351562,-0.003830292262136936
3517242.829,1480,1493,634016334,221.15,103158047,0.026462078094482422,-0.15106189250946045,252.5310516357422,-0.0031794903334230185
3517342.829,1480,1493,634016334,221.15,103158047,0.02471819892525673,-0.15316225588321686,252.52053833007812,-0.003271200228482485
3517442.829,1480,1493,634016334,221.15,103158045,0.02900896966457367,-0.17057904601097107,252.49569702148438,-0.004627688322216272
3517542.829,1480,1493,634016334,221.15,103158045,0.02933613955974579,-0.17971006035804749,252.4535675048828,-0.0055982451885938644
3517642.829,1480,1493,634016333,221.15,103158042,0.0274351816624403,-0.1759764850139618,252.42269897460938,-0.006056678015738726
3517742.829,1480,1493,634016333,221.15,103158042,0.025098402053117752,-0.1612335741519928,252.39016723632812,-0.004931006580591202
3517842.829,1480,1493,634016333,221.16,103158039,0.030777066946029663,-0.15046381950378418,252.36572265625,-0.0032204496674239635
3517942.829,1480,1493,634016333,221.16,103158039,0.030794214457273483,-0.15242718160152435,252.33355712890625,-0.002518812892958522
3518042.829,1480,1493,634016332,221.18,103158036,0.02427615225315094,-0.16357800364494324,252.30355834960938,-0.003454208606854081
3518142.829,1470,1493,634016332,221.18,103158036,0.02832275815308094,-0.17732152342796326,252.27166748046875,-0.004855730105191469
3518242.829,1460,1493,634016332,221.18,103158033,0.0262020081281662,-0.1761111319065094,252.22415161132812,-0.005686728749424219
3518342.829,1417,1493,634016332,221.18,103158033,-0.00024762580869719386,-0.17469367384910583,252.1754150390625,-0.005766192451119423
3518442.829,1417,1493,634016332,221.19,103158030,-0.04156523570418358,-0.18233396112918854,252.0739288330078,-0.01008395291864872
3518542.829,1398,1493,634016332,221.19,103158030,0.18261337280273438,-0.20491525530815125,251.81134033203125,-0.024642670527100563
3518642.829,1493,1493,634016332,221.18,103158027,0.03624594584107399,-0.13657541573047638,251.5368194580078,-0.05014911666512489
3518742.829,1493,1493,634016332,221.18,103158027,-0.06537933647632599,-0.22468087077140808,251.31634521484375,-0.04879244044423103
3518842.829,1493,1493,634016331,221.18,103158025,0.09964188933372498,-0.19793103635311127,251.11053466796875,-0.04121223837137222
3518942.829,1493,1493,634016331,221.18,103158025,0.060940202325582504,-0.11759276688098907,250.86807250976562,-0.04244261234998703
3519042.829,1493,1493,634016331,221.2,103158022,0.11404552310705185,-0.1914844661951065,250.5802764892578,-0.048032987862825394
3519142.829,1493,1493,634016331,221.2,103158022,0.010747358202934265,-0.11328922212123871,250.27052307128906,-0.05161613970994949
3519242.829,1493,1493,634016330,221.21,103158020,0.05577096343040466,-0.10781700909137726,249.98956298828125,-0.05072004720568657
3519342.829,1493,1493,634016330,221.21,103158020,-0.04137260466814041,-0.16922715306282043,249.7332763671875,-0.046556465327739716
3519442.829,1493,1493,634016330,221.21,103158016,0.023058459162712097,-0.17557184398174286,249.50738525390625,-0.04239972308278084
3519542.829,1493,1493,634016330,221.21,103158016,-0.003426218405365944,-0.1871825009584427,249.30413818359375,-0.038596298545598984
3519642.829,1493,1493,634016330,221.21,103158014,0.06586006283760071,-0.22907589375972748,249.10494995117188,-0.036876220256090164
3519742.829,1493,1493,634016330,221.21,103158014,0.048727232962846756,-0.18001998960971832,248.89089965820312,-0.038767457008361816
3519842.829,1493,1493,634016329,221.22,103158011,0.07933606207370758,-0.14505460858345032,248.6475830078125,-0.042831901460886
3519942.829,1493,1493,634016329,221.22,103158011,0.004934280179440975,-0.12914836406707764,248.4000701904297,-0.04465695098042488
3520042.829,1493,1493,634016329,221.22,103158008,0.022309714928269386,-0.1158900111913681,248.18093872070312,-0.041871774941682816
3520142.829,1493,1493,634016329,221.22,103158008,-0.011693364009261131,-0.12879525125026703,248.00762939453125,-0.03555195406079292
3520242.829,1493,1493,634016328,221.23,103158006,0.03001522272825241,-0.1954880803823471,247.83837890625,-0.03164167329668999
3520342.829,1493,1493,634016328,221.23,103158006,0.03200668841600418,-0.19718246161937714,247.66427612304688,-0.03217644244432449
3520442.829,1493,1493,634016327,221.23,103158003,0.05538445711135864,-0.20084801316261292,247.45956420898438,-0.03533513844013214
3520542.829,1493,1493,634016327,221.23,103158003,0.024918096140027046,-0.1814740002155304,247.24728393554688,-0.03616921231150627
3520642.829,1493,1493,634016327,221.25,103158000,0.036619871854782104,-0.14306527376174927,247.06301879882812,-0.03490249440073967
3520742.829,1493,1493,634016327,221.25,103158000,0.02326362207531929,-0.13569945096969604,246.89857482910156,-0.033205628395080566
3520842.829,1493,1493,634016326,221.25,103157998,0.021238461136817932,-0.13727012276649475,246.74774169921875,-0.0318957082927227
3520942.829,1493,1493,634016326,221.25,103157998,0.004691398702561855,-0.14820456504821777,246.62380981445312,-0.02994014136493206
3521042.829,1493,1493,634016325,221.26,103157995,0.02178247645497322,-0.1684131622314453,246.49658203125,-0.027716923505067825
3521142.829,1493,1493,634016325,221.26,103157995,0.027520859614014626,-0.1929560750722885,246.35919189453125,-0.02687305584549904
3521242.829,1493,1493,634016325,221.26,103157992,0.04730827361345291,-0.1766696721315384,246.20245361328125,-0.028484554961323738
3521342.829,1493,1493,634016325,221.26,103157992,0.037832096219062805,-0.1692844182252884,246.05409240722656,-0.03058784455060959
3521442.829,1493,1493,634016324,221.26,103157989,0.02601836435496807,-0.15020175278186798,245.92730712890625,-0.030039727687835693
3521542.829,1493,1493,634016324,221.26,103157989,0.016771765425801277,-0.15156376361846924,245.80545043945312,-0.026187527924776077
3521642.829,1493,1493,634016324,221.27,103157986,0.022676728665828705,-0.16183720529079437,245.70156860351562,-0.02274639718234539
3521742.829,1493,1493,634016324,221.27,103157986,0.03110658749938011,-0.16419564187526703,245.60101318359375,-0.02199915237724781
3521842.829,1493,1493,634016324,221.28,103157983,0.03570178523659706,-0.1625918447971344,245.5098419189453,-0.024185549467802048
3521942.829,1493,1493,634016324,221.28,103157983,0.038403719663619995,-0.156983882188797,245.38687133789062,-0.02575947716832161
3522042.829,1493,1493,634016323,221.27,103157981,0.030634839087724686,-0.16777288913726807,245.2481689453125,-0.0253231693059206
3522142.829,1493,1493,634016323,221.27,103157981,0.021759331226348877,-0.1699584722518921,245.1446075439453,-0.023723527789115906
3522242.829,1493,1493,634016322,221.28,103157978,0.02399137057363987,-0.17594082653522491,245.04403686523438,-0.022013597190380096
3522342.829,1493,1493,634016322,221.28,103157978,0.01820826530456543,-0.1741863489151001,244.93630981445312,-0.020615791901946068
3522442.829,1493,1493,634016322,221.29,103157975,0.023624129593372345,-0.16102586686611176,244.82037353515625,-0.01980532705783844
3522542.829,1493,1493,634016322,221.29,103157975,0.02824835479259491,-0.1500442624092102,244.7020721435547,-0.019789569079875946
3522642.829,1493,1493,634016321,221.29,103157972,0.03773707151412964,-0.15515901148319244,244.58270263671875,-0.021242190152406693
3522742.829,1493,1493,634016321,221.29,103157972,0.037248820066452026,-0.16040252149105072,244.47573852539062,-0.02225315198302269
3522842.829,1493,1493,634016321,221.3,103157970,0.023778609931468964,-0.16217876970767975,244.39706420898438,-0.02138526737689972
3522942.829,1493,1493,634016321,221.3,103157970,0.02722731977701187,-0.16842222213745117,244.32728576660156,-0.01873866468667984
3523042.829,1493,1493,634016321,221.29,103157967,0.026243360713124275,-0.16838306188583374,244.24148559570312,-0.016517698764801025
3523142.829,1493,1493,634016321,221.29,103157967,0.02824323996901512,-0.16950491070747375,244.15234375,-0.0163473729044199
3523242.829,1493,1493,634016320,221.3,103157965,0.02949168160557747,-0.166702538728714,244.06741333007812,-0.01805105246603489
3523342.829,1493,1493,634016320,221.3,103157965,0.024877741932868958,-0.16078367829322815,243.96414184570312,-0.019370874390006065
3523442.829,1493,1493,634016320,221.3,103157963,0.03384757786989212,-0.16679342091083527,243.87350463867188,-0.019535357132554054
3523542.829,1493,1493,634016320,221.3,103157963,0.03689088299870491,-0.1568220853805542,243.79782104492188,-0.017927251756191254
3523642.829,1493,1493,634016319,221.3,103157960,0.03252429515123367,-0.1610218733549118,243.72898864746094,-0.016064438968896866
3523742.829,1493,1493,634016319,221.3,103157960,0.030053801834583282,-0.15698015689849854,243.67608642578125,-0.014652094803750515
3523842.829,1493,1493,634016319,221.32,103157958,0.020747452974319458,-0.16335366666316986,243.59783935546875,-0.014377279207110405
3523942.829,1493,1493,634016319,221.32,103157958,0.01658937707543373,-0.17301514744758606,243.50390625,-0.014903372153639793
3524042.829,1493,1493,634016320,221.34,103157956,0.022447578608989716,-0.17937804758548737,243.43624877929688,-0.016022874042391777
3524142.829,1493,1493,634016320,221.34,103157956,0.03179021552205086,-0.17062294483184814,243.36343383789062,-0.016985001042485237
3524242.829,1493,1493,634016319,221.34,103157953,0.032522425055503845,-0.1525098979473114,243.28982543945312,-0.016560306772589684
3524342.829,1493,1493,634016319,221.34,103157953,0.03778396546840668,-0.14373838901519775,243.23178100585938,-0.014614353887736797
3524442.829,1493,1493,634016319,221.34,103157951,0.03526989743113518,-0.14589489996433258,243.15951538085938,-0.012920370325446129
3524542.829,1493,1493,634016319,221.34,103157951,0.030670570209622383,-0.16872458159923553,243.09088134765625,-0.012095977552235126
3524642.829,1493,1493,634016319,221.35,103157948,0.025608479976654053,-0.1791541874408722,243.01368713378906,-0.012758356519043446
3524742.829,1493,1493,634016319,221.35,103157948,0.018207384273409843,-0.18451592326164246,242.92958068847656,-0.01350467186421156
3524842.829,1493,1493,634016318,221.35,103157946,0.02550593763589859,-0.17390093207359314,242.85867309570312,-0.014103779569268227
3524942.829,1493,1493,634016318,221.35,103157946,0.025722362101078033,-0.15510320663452148,242.782958984375,-0.013907010667026043
3525042.829,1493,1493,634016318,221.36,103157944,0.03516775369644165,-0.1446874886751175,242.71951293945312,-0.01359863393008709
3525142.829,1493,1493,634016318,221.36,103157944,0.03249288350343704,-0.14409656822681427,242.66360473632812,-0.012177251279354095
3525242.829,1493,1493,634016317,221.36,103157942,0.03640288859605789,-0.1602025181055069,242.62002563476562,-0.011171351186931133
3525342.829,1493,1493,634016317,221.36,103157942,0.0312933512032032,-0.17170250415802002,242.59127807617188,-0.010813836008310318
3525442.829,1493,1493,634016317,221.37,103157940,0.027993205934762955,-0.18034087121486664,242.52296447753906,-0.011496346443891525
3525542.829,1493,1493,634016317,221.37,103157940,0.02584710717201233,-0.17203348875045776,242.44281005859375,-0.012897804379463196
3525642.829,1493,1493,634016317,221.37,103157938,0.03645719587802887,-0.16200454533100128,242.36709594726562,-0.013409432955086231
3525742.829,1493,1493,634016317,221.37,103157938,0.0389564149081707,-0.15268731117248535,242.3055419921875,-0.011998482048511505
3525842.829,1493,1493,634016316,221.38,103157936,0.029860706999897957,-0.14810362458229065,242.24725341796875,-0.00978868268430233
3525942.829,1493,1493,634016316,221.38,103157936,0.02737043984234333,-0.15294082462787628,242.1779327392578,-0.00859870109707117
3526042.829,1493,1493,634016316,221.39,103157934,0.022700481116771698,-0.16574032604694366,242.09912109375,-0.009039832279086113
3526142.829,1493,1493,634016316,221.39,103157934,0.022008521482348442,-0.17526715993881226,242.02865600585938,-0.010711354203522205
3526242.829,1493,1493,634016316,221.39,103157931,0.026362372562289238,-0.17245367169380188,241.94955444335938,-0.012554934248328209
3526342.829,1493,1493,634016316,221.39,103157931,0.031676147133111954,-0.17222750186920166,241.88351440429688,-0.01355644129216671
3526442.829,1493,1493,634016315,221.39,103157929,0.03895346820354462,-0.16380108892917633,241.83206176757812,-0.011992630548775196
3526542.829,1493,1493,634016315,221.39,103157929,0.03310186415910721,-0.15889273583889008,241.8043212890625,-0.00887815747410059
3526642.829,1493,1493,634016315,221.4,103157927,0.027707895264029503,-0.15831628441810608,241.7706298828125,-0.00625402620062232
3526742.829,1493,1493,634016315,221.4,103157927,0.029564213007688522,-0.16284872591495514,241.72720336914062,-0.006422273349016905
3526842.829,1493,1493,634016314,221.4,103157926,0.029132099822163582,-0.16688764095306396,241.65731811523438,-0.008926783688366413
3526942.829,1493,1493,634016314,221.4,103157926,0.024304373189806938,-0.16971467435359955,241.58050537109375,-0.012519651092588902
3527042.829,1493,1493,634016313,221.4,103157924,0.025862809270620346,-0.1731564998626709,241.52879333496094,-0.013862287625670433
3527142.829,1493,1493,634016313,221.4,103157924,0.02496650069952011,-0.1671791672706604,241.50326538085938,-0.010358690284192562
3527242.829,1493,1493,634016313,221.41,103157921,0.039889708161354065,-0.1627727746963501,241.48553466796875,-0.006130731664597988
3527342.829,1493,1493,634016313,221.41,103157921,0.03822450339794159,-0.15519624948501587,241.45046997070312,-0.004604189656674862
3527442.829,1493,1493,634016312,221.41,103157920,0.03055957704782486,-0.16433973610401154,241.4268798828125,-0.005937966518104076
3527542.829,1493,1493,634016312,221.41,103157920,0.022332679480314255,-0.15760621428489685,241.36940002441406,-0.009213389828801155
3527642.829,1493,1493,634016312,221.41,103157918,0.022174477577209473,-0.1614398956298828,241.31675720214844,-0.011763026937842369
3527742.829,1493,1493,634016312,221.41,103157918,0.029602494090795517,-0.16788116097450256,241.27810668945312,-0.011929590255022049
3527842.829,1493,1493,634016311,221.42,103157916,0.035646241158246994,-0.17389413714408875,241.25949096679688,-0.009561986662447453
3527942.829,1493,1493,634016311,221.42,103157916,0.0434974730014801,-0.1603485345840454,241.25225830078125,-0.006129797548055649
3528042.829,1493,1493,634016311,221.43,103157915,0.03758798539638519,-0.15216809511184692,241.24072265625,-0.0031105964444577694
3528142.829,1493,1493,634016311,221.43,103157915,0.033710405230522156,-0.1547446846961975,241.2154083251953,-0.0038123461417853832
3528242.829,1493,1493,634016310,221.43,103157912,0.027226069942116737,-0.1669587343931198,241.16787719726562,-0.0075010075233876705
3528342.829,1493,1493,634016310,221.43,103157912,0.019084131345152855,-0.17164361476898193,241.11209106445312,-0.011661287397146225
3528442.829,1493,1493,634016310,221.43,103157910,0.01683896780014038,-0.16373436152935028,241.06858825683594,-0.011918534524738789
3528542.829,1493,1493,634016310,221.43,103157910,0.01906615123152733,-0.16265112161636353,241.064697265625,-0.008367648348212242
3528642.829,1493,1493,634016309,221.45,103157908,0.03010893426835537,-0.15355272591114044,241.06170654296875,-0.00364184333011508
3528742.829,1493,1493,634016309,221.45,103157908,0.03911696374416351,-0.15717078745365143,241.04483032226562,-0.0023434245958924294
3528842.829,1493,1493,634016309,221.46,103157907,0.04156717658042908,-0.15855155885219574,241.0030059814453,-0.004829755984246731
3528942.829,1493,1493,634016309,221.46,103157907,0.02879832684993744,-0.16510027647018433,240.94964599609375,-0.008668163791298866
3529042.829,1493,1493,634016309,221.47,103157904,0.018731161952018738,-0.16569238901138306,240.89505004882812,-0.010102971456944942
3529142.829,1493,1493,634016309,221.47,103157904,0.021386384963989258,-0.16873657703399658,240.85882568359375,-0.00857382733374834
3529242.829,1493,1493,634016309,221.48,103157902,0.02031075581908226,-0.16476891934871674,240.83050537109375,-0.006760385353118181
3529342.829,1493,1493,634016309,221.48,103157902,0.02789444848895073,-0.15507185459136963,240.84231567382812,-0.004553461447358131
3529442.829,1493,1493,634016308,221.49,103157900,0.03222488611936569,-0.16014519333839417,240.81053161621094,-0.0028240960091352463
3529542.829,1493,1493,634016308,221.49,103157900,0.03163973242044449,-0.1640106588602066,240.80349731445312,-0.003163442015647888
3529642.829,1493,1493,634016308,221.5,103157898,0.032065585255622864,-0.17380474507808685,240.75196838378906,-0.005986119620501995
3529742.829,1493,1493,634016308,221.5,103157898,0.02759985625743866,-0.1717890501022339,240.72543334960938,-0.009525375440716743
3529842.829,1493,1493,634016307,221.49,103157896,0.012414978817105293,-0.16916424036026,240.69012451171875,-0.009777515195310116
3529942.829,1493,1493,634016307,221.49,103157896,0.016566557809710503,-0.16596335172653198,240.6703338623047,-0.006800848059356213
3530042.829,1493,1493,634016306,221.49,103157894,0.025252901017665863,-0.1501992642879486,240.6751708984375,-0.0033178781159222126
3530142.829,1493,1493,634016306,221.49,103157894,0.036413274705410004,-0.16212882101535797,240.64747619628906,-0.001183846266940236
3530242.829,1493,1493,634016305,221.48,103157893,0.043648865073919296,-0.17133194208145142,240.6042022705078,-0.0030611036345362663
3530342.829,1493,1493,634016305,221.48,103157893,0.02504759281873703,-0.17556437849998474,240.5716552734375,-0.006015948485583067
3530442.829,1493,1493,634016305,221.48,103157890,0.024487093091011047,-0.16539663076400757,240.54946899414062,-0.008314217440783978
3530542.829,1493,1493,634016305,221.48,103157890,0.01964767649769783,-0.1616228073835373,240.52212524414062,-0.008313549682497978
3530642.829,1493,1493,634016305,221.49,103157889,0.023491116240620613,-0.15719011425971985,240.504150390625,-0.006139182485640049
3530742.829,1493,1493,634016305,221.49,103157889,0.030448883771896362,-0.1581709086894989,240.49917602539062,-0.003300460521131754
3530842.829,1493,1493,634016304,221.5,103157886,0.03154260665178299,-0.16048192977905273,240.48910522460938,-0.0017819989006966352
3530942.829,1493,1493,634016304,221.5,103157886,0.031135793775320053,-0.16589932143688202,240.4551239013672,-0.002035648562014103
3531042.829,1493,1493,634016304,221.51,103157884,0.035610102117061615,-0.17833581566810608,240.42893981933594,-0.004471860826015472
3531142.829,1493,1493,634016304,221.51,103157884,0.02844761498272419,-0.17386792600154877,240.38815307617188,-0.0074522895738482475
3531242.829,1493,1493,634016303,221.49,103157883,0.016957055777311325,-0.1600647270679474,240.38539123535156,-0.008463675156235695
3531342.829,1493,1493,634016303,221.49,103157883,0.01854609325528145,-0.147475466132164,240.36634826660156,-0.005991135723888874
3531442.829,1493,1493,634016302,221.5,103157880,0.0335337296128273,-0.1527371108531952,240.38204956054688,-0.0018984826747328043
3531542.829,1493,1493,634016302,221.5,103157880,0.04740310460329056,-0.15899178385734558,240.3712615966797,-0.000452054082415998
3531642.829,1493,1493,634016302,221.49,103157878,0.04740910232067108,-0.16974058747291565,240.321044921875,-0.002745819976553321
3531742.829,1493,1493,634016302,221.49,103157878,0.0318581722676754,-0.17269709706306458,240.2604522705078,-0.005728294141590595
3531842.829,1493,1493,634016301,221.48,103157875,0.01670757308602333,-0.16970717906951904,240.23550415039062,-0.00678848335519433
3531942.829,1493,1493,634016301,221.48,103157875,0.012483683414757252,-0.1634863317012787,240.22796630859375,-0.005332707893103361
3532042.829,1493,1493,634016300,221.48,103157873,0.017232924699783325,-0.15486237406730652,240.21417236328125,-0.0033557128626853228
3532142.829,1493,1493,634016300,221.48,103157873,0.03127288445830345,-0.15462681651115417,240.21116638183594,-0.002308000810444355
3532242.829,1493,1493,634016300,221.48,103157871,0.04047716408967972,-0.15900352597236633,240.21348571777344,-0.0027573509141802788
3532342.829,1493,1493,634016300,221.48,103157871,0.03783448785543442,-0.16853675246238708,240.1917724609375,-0.003586044767871499
3532442.829,1493,1493,634016298,221.46,103157869,0.03633794188499451,-0.17106208205223083,240.1572265625,-0.003606481710448861
3532542.829,1493,1493,634016298,221.46,103157869,0.0293243620544672,-0.1737869381904602,240.13958740234375,-0.0044259317219257355
3532642.829,1493,1493,634016297,221.45,103157867,0.016856636852025986,-0.1658061146736145,240.1199951171875,-0.004552897997200489
3532742.829,1493,1493,634016297,221.45,103157867,0.01885506696999073,-0.15880560874938965,240.1112060546875,-0.004152253270149231
3532842.829,1493,1493,634016297,221.45,103157864,0.02804850973188877,-0.14909905195236206,240.1095428466797,-0.0025019196327775717
3532942.829,1493,1493,634016297,221.45,103157864,0.03686506673693657,-0.15496903657913208,240.10430908203125,-0.0018578104209154844
3533042.829,1493,1493,634016296,221.45,103157862,0.0379440002143383,-0.1677812933921814,240.0853271484375,-0.0028244806453585625
3533142.829,1493,1493,634016296,221.45,103157862,0.028839554637670517,-0.17407986521720886,240.0655975341797,-0.004364887718111277
3533242.829,1493,1493,634016295,221.44,103157860,0.02392631024122238,-0.17439034581184387,240.0304412841797,-0.004821394104510546
3533342.829,1493,1493,634016295,221.44,103157860,0.01503379363566637,-0.16522447764873505,240.0238037109375,-0.0036800485104322433
3533442.829,1493,1493,634016294,221.44,103157858,0.026037955656647682,-0.16071416437625885,240.00926208496094,-0.00187988905236125
3533542.829,1493,1493,634016294,221.44,103157858,0.031118927523493767,-0.14749816060066223,240.00311279296875,-0.002047111978754401
3533642.829,1493,1493,634016293,221.42,103157857,0.038774967193603516,-0.15254385769367218,239.99551391601562,-0.003013110253959894
3533742.829,1493,1493,634016293,221.42,103157857,0.034310802817344666,-0.15565435588359833,239.99264526367188,-0.0033868099562823772
3533842.829,1493,1493,634016292,221.42,103157855,0.031367942690849304,-0.16869902610778809,240.0013427734375,-0.003356090048328042
3533942.829,1493,1493,634016292,221.42,103157855,0.025948498398065567,-0.17726904153823853,240.019775390625,-0.0024403680581599474
3534042.829,1493,1493,634016291,221.42,103157852,0.02934989519417286,-0.17631086707115173,240.0078125,-0.0020534666255116463
3534142.829,1493,1493,634016291,221.42,103157852,0.02417418733239174,-0.16401317715644836,239.998291015625,-0.0026066110003739595
3534242.829,1493,1493,634016291,221.43,103157850,0.03191709890961647,-0.14896568655967712,239.98793029785156,-0.0031820812728255987
3534342.829,1493,1493,634016291,221.43,103157850,0.034646134823560715,-0.15165641903877258,239.9866943359375,-0.0028802063316106796
3534442.829,1493,1493,634016291,221.44,103157849,0.02994736097753048,-0.16451971232891083,239.98782348632812,-0.0025632462929934263
3534542.829,1493,1493,634016291,221.44,103157849,0.029238896444439888,-0.16820518672466278,239.99148559570312,-0.0024184498470276594
3534642.829,1493,1493,634016290,221.45,103157846,0.026195108890533447,-0.17219078540802002,239.97506713867188,-0.002872820943593979
3534742.829,1493,1493,634016290,221.45,103157846,0.024145841598510742,-0.16243679821491241,239.96072387695312,-0.0028124030213803053
3534842.829,1493,1493,634016289,221.43,103157844,0.03653399646282196,-0.1597275584936142,239.941650390625,-0.0027117296122014523
3534942.829,1493,1493,634016289,221.43,103157844,0.03851965069770813,-0.15694236755371094,239.93942260742188,-0.0018386775627732277
3535042.829,1493,1493,634016289,221.44,103157843,0.037956468760967255,-0.1598527729511261,239.9342041015625,-0.0018738422077149153
3535142.829,1493,1493,634016289,221.44,103157843,0.029451709240674973,-0.16507086157798767,239.93792724609375,-0.002266715280711651
3535242.829,1493,1493,634016289,221.45,103157840,0.019789226353168488,-0.16510383784770966,239.90432739257812,-0.0025997888296842575
3535342.829,1493,1493,634016289,221.45,103157840,0.030629832297563553,-0.15847869217395782,239.8921661376953,-0.002555904444307089
3535442.829,1493,1493,634016288,221.45,103157839,0.02538692019879818,-0.1601865589618683,239.89297485351562,-0.0021872161887586117
3535542.829,1493,1493,634016288,221.45,103157839,0.027753714472055435,-0.16418278217315674,239.8829345703125,-0.0018296571215614676
3535642.829,1493,1493,634016286,221.43,103157838,0.03503455966711044,-0.16822737455368042,239.86996459960938,-0.0011327072279527783
3535742.829,1493,1493,634016286,221.43,103157838,0.03277039900422096,-0.162187859416008,239.8574676513672,-0.0005778002669103444
3535842.829,1493,1493,634016285,221.42,103157835,0.037384286522865295,-0.1633855700492859,239.83853149414062,-0.0016704725567251444
3535942.829,1493,1493,634016285,221.42,103157835,0.02209576964378357,-0.1514814794063568,239.81845092773438,-0.002883201465010643
3536042.829,1493,1493,634016284,221.41,103157833,0.03314709663391113,-0.15027034282684326,239.8077392578125,-0.0037984605878591537
3536142.829,1493,1493,634016284,221.41,103157833,0.028102368116378784,-0.1666272133588791,239.79673767089844,-0.0028383424505591393
3536242.829,1493,1493,634016283,221.41,103157832,0.027554865926504135,-0.17507681250572205,239.79969787597656,-0.0009555731667205691
3536342.829,1493,1493,634016283,221.41,103157832,0.024790778756141663,-0.17383147776126862,239.83474731445312,0.0007808776572346687
3536442.829,1493,1493,634016283,221.4,103157830,0.0287138894200325,-0.17255157232284546,239.85406494140625,0.0001834340364439413
3536542.829,1493,1493,634016283,221.4,103157830,0.03252962976694107,-0.1559344232082367,239.8421630859375,-0.0022885382641106844
3536642.829,1493,1493,634016281,221.39,103157828,0.03086353838443756,-0.15264303982257843,239.8326416015625,-0.0037778010591864586
3536742.829,1493,1493,634016281,221.39,103157828,0.025461962446570396,-0.15787124633789062,239.83164978027344,-0.0036045617889612913
3536842.829,1493,1493,634016281,221.39,103157825,0.034357063472270966,-0.16356223821640015,239.83709716796875,-0.0021401923149824142
3536942.829,1493,1493,634016281,221.39,103157825,0.03211797773838043,-0.16515658795833588,239.82635498046875,-0.0002223531191702932
3537042.829,1493,1493,634016281,221.39,103157823,0.02725078910589218,-0.16754606366157532,239.8206787109375,0.0007059687050059438
3537142.829,1493,1493,634016281,221.39,103157823,0.023724272847175598,-0.1638486236333847,239.8023223876953,-0.000454011547844857
3537242.829,1493,1493,634016280,221.4,103157821,0.027476776391267776,-0.16525015234947205,239.77593994140625,-0.0016344768228009343
3537342.829,1493,1493,634016280,221.4,103157821,0.028516389429569244,-0.15623043477535248,239.7622833251953,-0.002726275473833084
3537442.829,1493,1493,634016280,221.4,103157819,0.03238531947135925,-0.16656409204006195,239.73867797851562,-0.0029155458323657513
3537542.829,1493,1493,634016280,221.4,103157819,0.03048139624297619,-0.16132692992687225,239.70921325683594,-0.0017284334171563387
3537642.829,1493,1493,634016279,221.39,103157817,0.02934867888689041,-0.15759527683258057,239.71630859375,-0.00026294199051335454
3537742.829,1493,1493,634016279,221.39,103157817,0.036546796560287476,-0.1630852222442627,239.71267700195312,0.00077977025648579
3537842.829,1493,1493,634016277,221.37,103157816,0.022420374676585197,-0.1659211814403534,239.72499084472656,0.0001512764283688739
3537942.829,1493,1493,634016277,221.37,103157816,0.019516903907060623,-0.16701287031173706,239.73794555664062,-0.0013714567758142948
3538042.829,1493,1493,634016277,221.37,103157813,0.020261509343981743,-0.1632535606622696,239.72698974609375,-0.003285336308181286
3538142.829,1493,1493,634016277,221.37,103157813,0.02411528304219246,-0.16207577288150787,239.73141479492188,-0.0032080321107059717
3538242.829,1493,1493,634016277,221.38,103157811,0.03336820378899574,-0.16209883987903595,239.73794555664062,-0.0016117121558636427
3538342.829,1493,1493,634016277,221.38,103157811,0.03507542982697487,-0.1587507426738739,239.76226806640625,0.00045282370410859585
3538442.829,1493,1493,634016276,221.38,103157810,0.037964921444654465,-0.16576048731803894,239.77195739746094,0.0009685877012088895
3538542.829,1493,1493,634016276,221.38,103157810,0.03455337882041931,-0.16613206267356873,239.75059509277344,-0.0002291270939167589
3538642.829,1493,1493,634016276,221.37,103157807,0.031101666390895844,-0.16450175642967224,239.73037719726562,-0.0015913238748908043
3538742.829,1493,1493,634016276,221.37,103157807,0.02738925814628601,-0.16350021958351135,239.72586059570312,-0.002516393316909671
3538842.829,1493,1493,634016274,221.35,103157806,0.027700301259756088,-0.1649954617023468,239.72894287109375,-0.002249594544991851
3538942.829,1493,1493,634016274,221.35,103157806,0.02651812881231308,-0.16337046027183533,239.7333984375,-0.001618647831492126
3539042.829,1493,1493,634016274,221.36,103157804,0.028094764798879623,-0.15298545360565186,239.73590087890625,-0.0005833888426423073
3539142.829,1493,1493,634016274,221.36,103157804,0.02486954815685749,-0.1599443256855011,239.73455810546875,0.0003104366478510201
3539242.829,1493,1493,634016273,221.35,103157802,0.027893656864762306,-0.17527121305465698,239.72451782226562,0.0005344492383301258
3539342.829,1493,1493,634016273,221.35,103157802,0.029287394136190414,-0.17921298742294312,239.71759033203125,-0.00012169846741016954
3539442.829,1493,1493,634016273,221.36,103157801,0.0212550051510334,-0.17690809071063995,239.70901489257812,-0.0014815032482147217
3539542.829,1493,1493,634016273,221.36,103157801,0.029823247343301773,-0.1618356555700302,239.68820190429688,-0.002823226386681199
3539642.829,1493,1493,634016272,221.35,103157799,0.036774538457393646,-0.14483466744422913,239.6858673095703,-0.002809400437399745
3539742.829,1493,1493,634016272,221.35,103157799,0.03242800384759903,-0.14465069770812988,239.69720458984375,-0.0012806670274585485
3539842.829,1493,1493,634016271,221.34,103157797,0.03948954492807388,-0.1567126214504242,239.67726135253906,0.0007010966073721647
3539942.829,1493,1493,634016271,221.34,103157797,0.033645857125520706,-0.1884688436985016,239.66372680664062,0.0013576876372098923
3540042.829,1493,1493,634016271,221.34,103157796,0.015192104503512383,-0.18237952888011932,239.64901733398438,0.0004473131848499179
3540142.829,1493,1493,634016271,221.34,103157796,0.018315432593226433,-0.17386960983276367,239.64187622070312,-0.0015281265368685126
3540242.829,1493,1493,634016270,221.33,103157795,0.027376502752304077,-0.15475347638130188,239.63636779785156,-0.0028304769657552242
3540342.829,1493,1493,634016270,221.33,103157795,0.03041614592075348,-0.14442217350006104,239.6417236328125,-0.0030168769881129265
3540442.829,1493,1493,634016270,221.34,103157792,0.032320037484169006,-0.15161973237991333,239.65350341796875,-0.0007023811340332031
3540542.829,1493,1493,634016270,221.34,103157792,0.029559090733528137,-0.17116740345954895,239.66708374023438,0.0012644323287531734
3540642.829,1493,1493,634016270,221.33,103157790,0.028773345053195953,-0.1819973737001419,239.6736297607422,0.0015638284385204315
3540742.829,1493,1493,634016270,221.33,103157790,0.029463239014148712,-0.17529131472110748,239.65420532226562,0.00022082138457335532
3540842.829,1493,1493,634016269,221.33,103157788,0.028108691796660423,-0.17088137567043304,239.62652587890625,-0.002346636960282922
3540942.829,1493,1493,634016269,221.33,103157788,0.02897520735859871,-0.14988678693771362,239.6102752685547,-0.0037347960751503706
3541042.829,1493,1493,634016269,221.33,103157787,0.022670134902000427,-0.14520956575870514,239.61407470703125,-0.0024651498533785343
3541142.829,1493,1493,634016269,221.33,103157787,0.0328066349029541,-0.15150992572307587,239.62429809570312,0.00022722576977685094
3541242.829,1493,1493,634016268,221.33,103157785,0.032719869166612625,-0.16955241560935974,239.63270568847656,0.001428058953024447
3541342.829,1493,1493,634016268,221.33,103157785,0.0352080799639225,-0.17885564267635345,239.62127685546875,0.0003764837165363133
3541442.829,1493,1493,634016268,221.33,103157784,0.02949943207204342,-0.1759520173072815,239.60552978515625,-0.0016210350440815091
3541542.829,1493,1493,634016268,221.33,103157784,0.03307653218507767,-0.167379230260849,239.6000518798828,-0.002090321620926261
3541642.829,1493,1493,634016268,221.33,103157781,0.030048102140426636,-0.15750287473201752,239.5615997314453,-0.0017992118373513222
3541742.829,1493,1493,634016268,221.33,103157781,0.023352865129709244,-0.15119045972824097,239.5703125,-0.000809847260825336
3541842.829,1493,1493,634016268,221.33,103157780,0.028451349586248398,-0.1514478623867035,239.58984375,-0.00037885818164795637
3541942.829,1493,1493,634016268,221.33,103157780,0.04278820380568504,-0.16258536279201508,239.573974609375,-0.00034155830508098006
3542042.829,1493,1493,634016267,221.33,103157778,0.03564082458615303,-0.1674768477678299,239.56634521484375,-0.0005849512526765466
3542142.829,1493,1493,634016267,221.33,103157778,0.0388060137629509,-0.17258475720882416,239.57940673828125,-0.0011472544865682721
3542242.829,1493,1493,634016267,221.33,103157776,0.03284772112965584,-0.17691516876220703,239.5701141357422,-0.0008735079318284988
3542342.829,1493,1493,634016267,221.33,103157776,0.018870433792471886,-0.1613457202911377,239.56716918945312,-0.0009719164227135479
3542442.829,1493,1493,634016266,221.32,103157775,0.022463681176304817,-0.15274836122989655,239.56051635742188,-0.000809391145594418
3542542.829,1493,1493,634016266,221.32,103157775,0.019189393147826195,-0.15277928113937378,239.56210327148438,-0.0010835397988557816
3542642.829,1493,1493,634016266,221.32,103157773,0.03456698730587959,-0.16063626110553741,239.56800842285156,-0.0010737485717982054
3542742.829,1493,1493,634016266,221.32,103157773,0.03873804956674576,-0.17807532846927643,239.5762939453125,-0.0008039934327825904
3542842.829,1493,1493,634016265,221.33,103157771,0.04061822593212128,-0.17153936624526978,239.58309936523438,-0.0006597579340450466
3542942.829,1493,1493,634016265,221.33,103157771,0.0348040834069252,-0.16685278713703156,239.58889770507812,-0.0003318617818877101
3543042.829,1493,1493,634016265,221.32,103157769,0.027077969163656235,-0.1516750454902649,239.5662078857422,-0.00037764725857414305
3543142.829,1493,1493,634016265,221.32,103157769,0.020987726747989655,-0.1564001739025116,239.55398559570312,-0.0005472208140417933
3543242.829,1493,1493,634016265,221.32,103157768,0.026172054931521416,-0.16134366393089294,239.53689575195312,-0.0015096866991370916
3543342.829,1493,1493,634016265,221.32,103157768,0.022975783795118332,-0.16314342617988586,239.51617431640625,-0.0022006293293088675
3543442.829,1493,1493,634016264,221.32,103157767,0.034241627901792526,-0.1657021939754486,239.5042266845703,-0.0018501582089811563
3543542.829,1493,1493,634016264,221.32,103157767,0.02950967848300934,-0.16920357942581177,239.50254821777344,-0.000520169036462903
3543642.829,1493,1493,634016264,221.32,103157765,0.03544708341360092,-0.16853401064872742,239.51748657226562,0.001131794648244977
3543742.829,1493,1493,634016264,221.32,103157765,0.029137445613741875,-0.16650913655757904,239.52728271484375,0.0008490315522067249
3543842.829,1493,1493,634016263,221.32,103157763,0.02892782911658287,-0.15676768124103546,239.53536987304688,-0.0013009581016376615
3543942.829,1493,1493,634016263,221.32,103157763,0.028594352304935455,-0.1591660976409912,239.54153442382812,-0.003208204172551632
3544042.829,1493,1493,634016262,221.31,103157762,0.03481535241007805,-0.15775001049041748,239.5484619140625,-0.0026069595478475094
3544142.829,1493,1493,634016262,221.31,103157762,0.029973352327942848,-0.16350018978118896,239.54071044921875,-0.0008407891727983952
3544242.829,1493,1493,634016261,221.32,103157761,0.028544766828417778,-0.16801577806472778,239.5572509765625,0.0010311238002032042
3544342.829,1493,1493,634016261,221.32,103157761,0.029096875339746475,-0.17028114199638367,239.5728759765625,0.0011440591188147664
3544442.829,1493,1493,634016261,221.32,103157759,0.027719911187887192,-0.16311247646808624,239.5616455078125,0.000011513480785652064
3544542.829,1493,1493,634016261,221.32,103157759,0.030016712844371796,-0.1620296686887741,239.5582275390625,-0.001742974272929132
3544642.829,1493,1493,634016260,221.3,103157758,0.03796593099832535,-0.15972398221492767,239.56820678710938,-0.002967111999168992
3544742.829,1493,1493,634016260,221.3,103157758,0.029499895870685577,-0.15482448041439056,239.57518005371094,-0.0025386821944266558
3544842.829,1493,1493,634016259,221.3,103157756,0.02191024459898472,-0.16424360871315002,239.58590698242188,-0.0008313232101500034
3544942.829,1493,1493,634016259,221.3,103157756,0.028509100899100304,-0.16202817857265472,239.59429931640625,0.0007629100582562387
3545042.829,1493,1493,634016258,221.3,103157754,0.030408576130867004,-0.17482824623584747,239.59579467773438,0.0012137177400290966
3545142.829,1493,1493,634016258,221.3,103157754,0.03336932510137558,-0.16990002989768982,239.59634399414062,-0.0003428008931223303
3545242.829,1493,1493,634016258,221.29,103157753,0.02685006707906723,-0.16753877699375153,239.5873260498047,-0.002262455876916647
3545342.829,1493,1493,634016258,221.29,103157753,0.03056447021663189,-0.15600165724754333,239.5776824951172,-0.0031132311560213566
3545442.829,1493,1493,634016257,221.29,103157752,0.02889731153845787,-0.15617167949676514,239.57968139648438,-0.0024565330240875483
3545542.829,1493,1493,634016257,221.29,103157752,0.025507856160402298,-0.15854951739311218,239.58096313476562,-0.0006715250201523304
3545642.829,1493,1493,634016257,221.29,103157750,0.021552953869104385,-0.16966305673122406,239.59817504882812,0.0005690223188139498
3545742.829,1493,1493,634016257,221.29,103157750,0.030161861330270767,-0.16529743373394012,239.58587646484375,0.0008866516873240471
3545842.829,1493,1493,634016255,221.27,103157749,0.026411309838294983,-0.1666734516620636,239.57534790039062,-0.00038754858542233706
3545942.829,1493,1493,634016255,221.27,103157749,0.033267322927713394,-0.15776127576828003,239.56179809570312,-0.0022589294239878654
3546042.829,1493,1493,634016255,221.25,103157747,0.0315062515437603,-0.15140323340892792,239.53790283203125,-0.0029470876324921846
3546142.829,1493,1493,634016255,221.25,103157747,0.032278526574373245,-0.16064633429050446,239.50680541992188,-0.0023065826389938593
3546242.829,1493,1493,634016254,221.24,103157747,0.028561748564243317,-0.15533451735973358,239.4942626953125,-0.000782402406912297
3546342.829,1493,1493,634016254,221.24,103157747,0.035015325993299484,-0.16349709033966064,239.49945068359375,0.0012349531752988696
3546442.829,1493,1493,634016252,221.21,103157746,0.032067470252513885,-0.1668267846107483,239.49606323242188,0.001490116468630731
3546542.829,1493,1493,634016252,221.21,103157746,0.027517065405845642,-0.1699158102273941,239.46688842773438,-0.00046314444625750184
3546642.829,1493,1493,634016251,221.2,103157745,0.027985647320747375,-0.15595102310180664,239.43614196777344,-0.002732321619987488
3546742.829,1493,1493,634016251,221.2,103157745,0.02177734673023224,-0.14953432977199554,239.44064331054688,-0.003279471304267645
3546842.829,1493,1493,634016251,221.21,103157743,0.029104674234986305,-0.1490298956632614,239.45523071289062,-0.0018876784015446901
3546942.829,1493,1493,634016251,221.21,103157743,0.032676730304956436,-0.16356271505355835,239.45388793945312,0.00011212241224711761
3547042.829,1493,1493,634016250,221.2,103157741,0.03322131559252739,-0.16972751915454865,239.45590209960938,0.0010586328571662307
3547142.829,1493,1493,634016250,221.2,103157741,0.032572485506534576,-0.1680879294872284,239.46243286132812,0.00018135512073058635
3547242.829,1493,1493,634016250,221.21,103157740,0.029181063175201416,-0.15602657198905945,239.42971801757812,-0.001508631743490696
3547342.829,1493,1493,634016250,221.21,103157740,0.03326151520013809,-0.15361478924751282,239.4223175048828,-0.002778940834105015
3547442.829,1493,1493,634016250,221.21,103157737,0.029202096164226532,-0.15320727229118347,239.39208984375,-0.002638393547385931
3547542.829,1493,1493,634016250,221.21,103157737,0.032124586403369904,-0.16652025282382965,239.3588104248047,-0.001601604395546019
3547642.829,1493,1493,634016250,221.22,103157736,0.02095765247941017,-0.16685494780540466,239.36212158203125,-0.000007176620783866383
3547742.829,1493,1493,634016250,221.22,103157736,0.03021976910531521,-0.16968297958374023,239.37765502929688,0.000859405321534723
3547842.829,1493,1493,634016250,221.22,103157733,0.03209970146417618,-0.16964566707611084,239.35800170898438,0.00006878598651383072
3547942.829,1493,1493,634016250,221.22,103157733,0.03338329493999481,-0.1628378927707672,239.3365478515625,-0.0017277683364227414
3548042.829,1493,1493,634016250,221.24,103157731,0.028200766071677208,-0.14905336499214172,239.322509765625,-0.0031041945330798626
3548142.829,1493,1493,634016250,221.24,103157731,0.023940274491906166,-0.15444347262382507,239.3107147216797,-0.0027009497862309217
3548242.829,1493,1493,634016250,221.24,103157729,0.02990971878170967,-0.1604224145412445,239.3310546875,-0.0009923067409545183
3548342.829,1493,1493,634016250,221.24,103157729,0.028007637709379196,-0.16490022838115692,239.3310546875,0.0005509719485417008
3548442.829,1493,1493,634016249,221.24,103157727,0.03835718333721161,-0.1738412082195282,239.30772399902344,-0.00015253550373017788
3548542.829,1493,1493,634016249,221.24,103157727,0.035091254860162735,-0.16852930188179016,239.3071746826172,-0.0008510345360264182
3548642.829,1493,1493,634016249,221.24,103157724,0.03853542357683182,-0.15269380807876587,239.307373046875,-0.001505446620285511
3548742.829,1493,1493,634016249,221.24,103157724,0.0350165069103241,-0.14810247719287872,239.29269409179688,-0.002007680479437113
3548842.829,1493,1493,634016249,221.23,103157722,0.02326495572924614,-0.1509624719619751,239.29864501953125,-0.0018359418027102947
3548942.829,1493,1493,634016249,221.23,103157722,0.01874270662665367,-0.1748960018157959,239.30299377441406,-0.0016274109948426485
3549042.829,1493,1493,634016247,221.23,103157721,0.02491367608308792,-0.17354437708854675,239.30758666992188,-0.0005620737210847437
3549142.829,1493,1493,634016247,221.23,103157721,0.024447493255138397,-0.1720803827047348,239.32412719726562,0.000013929868146078661
3549242.829,1493,1493,634016247,221.21,103157718,0.03136454522609711,-0.16708365082740784,239.31903076171875,-0.001041246810927987
3549342.829,1493,1493,634016247,221.21,103157718,0.032404907047748566,-0.15621468424797058,239.32791137695312,-0.002196026034653187
3549442.829,1493,1493,634016247,221.21,103157716,0.02819010801613331,-0.15514139831066132,239.3306427001953,-0.0025491563137620687
3549542.829,1493,1493,634016247,221.21,103157716,0.03307949751615524,-0.16483540832996368,239.30816650390625,-0.0022111546713858843
3549642.829,1493,1493,634016246,221.21,103157713,0.03585121035575867,-0.17101696133613586,239.30935668945312,-0.0010306384647265077
3549742.829,1493,1493,634016246,221.21,103157713,0.023558154702186584,-0.1633308082818985,239.31295776367188,-0.00024116228451021016
3549842.829,1493,1493,634016245,221.19,103157712,0.02372412569820881,-0.16134604811668396,239.3317413330078,-0.0002899362880270928
3549942.829,1493,1493,634016245,221.19,103157712,0.02197609841823578,-0.1625981479883194,239.36024475097656,-0.0009812891948968172
3550042.829,1493,1493,634016244,221.17,103157710,0.02406463772058487,-0.15733814239501953,239.3627471923828,-0.002090964000672102
3550142.829,1493,1493,634016244,221.17,103157710,0.028817325830459595,-0.16128107905387878,239.33840942382812,-0.0026762313209474087
3550242.829,1493,1493,634016243,221.16,103157708,0.035822056233882904,-0.16383838653564453,239.32168579101562,-0.002344326348975301
3550342.829,1493,1493,634016243,221.16,103157708,0.026284968480467796,-0.16342408955097198,239.3144989013672,-0.001556485891342163
3550442.829,1493,1493,634016242,221.14,103157705,0.034328315407037735,-0.1723777800798416,239.30230712890625,-0.0009432605002075434
3550542.829,1493,1493,634016242,221.14,103157705,0.03206848353147507,-0.1636236608028412,239.32122802734375,-0.00018900622671935707
3550642.829,1493,1493,634016242,221.13,103157703,0.029460079967975616,-0.16090436279773712,239.33416748046875,-0.000906130182556808
3550742.829,1493,1493,634016242,221.13,103157703,0.030918126925826073,-0.15671415627002716,239.3505859375,-0.002241995418444276
3550842.829,1493,1493,634016242,221.13,103157701,0.0315137654542923,-0.16426965594291687,239.3299102783203,-0.0030461731366813183
3550942.829,1493,1493,634016242,221.13,103157701,0.023593608289957047,-0.1642516553401947,239.32752990722656,-0.002168064471334219
3551042.829,1493,1493,634016241,221.13,103157697,0.017109332606196404,-0.169946551322937,239.32748413085938,-0.0010182805126532912
3551142.829,1493,1493,634016241,221.13,103157697,0.027814269065856934,-0.16286057233810425,239.3402862548828,-0.00015080645971465856
3551242.829,1493,1493,634016241,221.12,103157696,0.04554441571235657,-0.16893136501312256,239.3585662841797,-0.0007140628295019269
3551342.829,1493,1493,634016241,221.12,103157696,0.032572630792856216,-0.15608543157577515,239.38055419921875,-0.00194375473074615
3551442.829,1493,1493,634016240,221.12,103157694,0.035371337085962296,-0.16429679095745087,239.37136840820312,-0.003172491677105427
3551542.829,1493,1493,634016240,221.12,103157694,0.021987950429320335,-0.16368211805820465,239.34579467773438,-0.0032111266627907753
3551642.829,1493,1493,634016240,221.12,103157692,0.035061996430158615,-0.16448278725147247,239.34593200683594,-0.0019186997087672353
3551742.829,1493,1493,634016240,221.12,103157692,0.035237058997154236,-0.16917525231838226,239.35411071777344,-0.0003804422449320555
3551842.829,1493,1493,634016239,221.11,103157690,0.021661821752786636,-0.17332389950752258,239.34927368164062,-0.00011548529437277466
3551942.829,1493,1493,634016239,221.11,103157690,0.0292076263576746,-0.1665530800819397,239.34063720703125,-0.0006550519610755146
3552042.829,1493,1493,634016239,221.11,103157688,0.031135274097323418,-0.15661552548408508,239.35482788085938,-0.0021405424922704697
3552142.829,1493,1493,634016239,221.11,103157688,0.029463790357112885,-0.15804357826709747,239.32379150390625,-0.0032803162466734648
3552242.829,1493,1493,634016238,221.11,103157687,0.02586500532925129,-0.16314998269081116,239.2998046875,-0.0033429255709052086
3552342.829,1493,1493,634016238,221.11,103157687,0.0291111059486866,-0.16888141632080078,239.29550170898438,-0.0017423218814656138
3552442.829,1493,1493,634016237,221.09,103157685,0.03031167946755886,-0.1675368994474411,239.29315185546875,-0.00037147378316149116
3552542.829,1493,1493,634016237,221.09,103157685,0.029538968577980995,-0.15861071646213531,239.3012237548828,-0.0001267035841010511
3552642.829,1493,1493,634016237,221.09,103157682,0.03267977759242058,-0.15536385774612427,239.26846313476562,-0.0011772592552006245
3552742.829,1493,1493,634016237,221.09,103157682,0.02664918079972267,-0.15759460628032684,239.25958251953125,-0.0027171827387064695
3552842.829,1493,1493,634016237,221.09,103157681,0.024171732366085052,-0.16285669803619385,239.24050903320312,-0.003268101718276739
3552942.829,1493,1493,634016237,221.09,103157681,0.026669584214687347,-0.16231989860534668,239.24664306640625,-0.002161328913643956
3553042.829,1493,1493,634016236,221.09,103157679,0.029248038306832314,-0.1630517840385437,239.27011108398438,-0.001074948231689632
3553142.829,1493,1493,634016236,221.09,103157679,0.028761254623532295,-0.16058120131492615,239.2709197998047,-0.0007553311297670007
3553242.829,1493,1493,634016235,221.09,103157678,0.03033151477575302,-0.1604538857936859,239.27706909179688,-0.0012765269493684173
3553342.829,1493,1493,634016235,221.09,103157678,0.03161665052175522,-0.16625240445137024,239.25717163085938,-0.002332063391804695
3553442.829,1493,1493,634016235,221.1,103157675,0.02396906353533268,-0.15766644477844238,239.2159423828125,-0.002672976115718484
3553542.829,1493,1493,634016235,221.1,103157675,0.03515544533729553,-0.15708798170089722,239.18527221679688,-0.0025333878584206104
3553642.829,1493,1493,634016235,221.11,103157673,0.03689799830317497,-0.1570369005203247,239.18392944335938,-0.0017108902102336287
3553742.829,1493,1493,634016235,221.11,103157673,0.03918185830116272,-0.16918423771858215,239.17166137695312,-0.0007554722833447158
3553842.829,1493,1493,634016235,221.11,103157671,0.030059996992349625,-0.16296811401844025,239.17459106445312,-0.0006089928210712969
3553942.829,1493,1493,634016235,221.11,103157671,0.03096775710582733,-0.16391991078853607,239.17868041992188,-0.0012129838578402996
3554042.829,1493,1493,634016234,221.1,103157669,0.036945514380931854,-0.1645168960094452,239.16815185546875,-0.0022874490823596716
3554142.829,1493,1493,634016234,221.1,103157669,0.029801063239574432,-0.1650901734828949,239.16015625,-0.0034936831798404455
3554242.829,1493,1493,634016233,221.09,103157668,0.023904841393232346,-0.16823947429656982,239.14205932617188,-0.0033579885493963957
3554342.829,1493,1493,634016233,221.09,103157668,0.03055720031261444,-0.1647011637687683,239.12112426757812,-0.0017072393093258142
3554442.829,1493,1493,634016232,221.08,103157667,0.030866345390677452,-0.16030436754226685,239.12432861328125,-0.0007467993418686092
3554542.829,1493,1493,634016232,221.08,103157667,0.034710634499788284,-0.16069597005844116,239.131103515625,-0.0010191748151555657
3554642.829,1493,1493,634016231,221.07,103157665,0.0324510782957077,-0.15641634166240692,239.1436309814453,-0.0019038671161979437
3554742.829,1493,1493,634016231,221.07,103157665,0.02891284041106701,-0.1656300574541092,239.14349365234375,-0.002991905203089118
3554842.829,1493,1493,634016231,221.07,103157663,0.024481719359755516,-0.16605660319328308,239.15054321289062,-0.0027577183209359646
3554942.829,1493,1493,634016231,221.07,103157663,0.029232289642095566,-0.1577056497335434,239.1690673828125,-0.0018499012803658843
3555042.829,1493,1493,634016230,221.07,103157662,0.032213255763053894,-0.16453817486763,239.175048828125,-0.0013770511141046882
3555142.829,1493,1493,634016230,221.07,103157662,0.028648845851421356,-0.16599607467651367,239.1924591064453,-0.0015401884447783232
3555242.829,1493,1493,634016230,221.07,103157660,0.025662392377853394,-0.15980203449726105,239.18130493164062,-0.0018308525905013084
3555342.829,1493,1493,634016230,221.07,103157660,0.031047441065311432,-0.16483356058597565,239.17138671875,-0.002379064913839102
3555442.829,1493,1493,634016229,221.06,103157658,0.033060457557439804,-0.16271908581256866,239.13873291015625,-0.0023600177373737097
3555542.829,1493,1493,634016229,221.06,103157658,0.029788097366690636,-0.16583271324634552,239.11373901367188,-0.0029481633100658655
3555642.829,1493,1493,634016228,221.06,103157656,0.02068568579852581,-0.16633449494838715,239.08026123046875,-0.0028436321299523115
3555742.829,1493,1493,634016228,221.06,103157656,0.023745758458971977,-0.16206081211566925,239.0550537109375,-0.0015411670319736004
3555842.829,1493,1493,634016228,221.06,103157655,0.028356987982988358,-0.1564978063106537,239.03753662109375,-0.0009201705688610673
3555942.829,1493,1493,634016228,221.06,103157655,0.03327813744544983,-0.16305167973041534,239.02145385742188,-0.0017553456127643585
3556042.829,1493,1493,634016227,221.05,103157652,0.029942268505692482,-0.16465874016284943,239.01254272460938,-0.002488807076588273
3556142.829,1493,1493,634016227,221.05,103157652,0.036325663328170776,-0.16387437283992767,238.99124145507812,-0.0033338465727865696
3556242.829,1493,1493,634016227,221.06,103157652,0.03493843972682953,-0.16213859617710114,238.97573852539062,-0.002941555343568325
3556342.829,1493,1493,634016227,221.06,103157652,0.027958564460277557,-0.1671510636806488,238.98101806640625,-0.0017327471869066358
3556442.829,1493,1493,634016226,221.06,103157649,0.03715191036462784,-0.15610256791114807,238.97023010253906,-0.0010969189461320639
3556542.829,1493,1493,634016226,221.06,103157649,0.019429197534918785,-0.16947978734970093,238.9370880126953,-0.001853258698247373
3556642.829,1493,1493,634016225,221.06,103157648,0.025144649669528008,-0.15794697403907776,238.91232299804688,-0.002747135702520609
3556742.829,1493,1493,634016225,221.06,103157648,0.03176603838801384,-0.16380932927131653,238.91845703125,-0.0026635462418198586
3556842.829,1493,1493,634016225,221.06,103157646,0.03205037862062454,-0.1525573432445526,238.90985107421875,-0.0022630610037595034
3556942.829,1493,1493,634016225,221.06,103157646,0.03385215997695923,-0.1667511761188507,238.88714599609375,-0.0022637974470853806
3557042.829,1493,1493,634016224,221.06,103157645,0.03409339487552643,-0.17088553309440613,238.8873291015625,-0.0022208255250006914
3557142.829,1493,1493,634016224,221.06,103157645,0.03420041501522064,-0.1588195264339447,238.88638305664062,-0.002154447603970766
3557242.829,1493,1493,634016224,221.05,103157643,0.02788069285452366,-0.15314388275146484,238.88058471679688,-0.002400918398052454
3557342.829,1493,1493,634016224,221.05,103157643,0.027974583208560944,-0.15552982687950134,238.85220336914062,-0.002599109895527363
3557442.829,1493,1493,634016223,221.05,103157642,0.030209746211767197,-0.16278555989265442,238.826171875,-0.0023519175592809916
3557542.829,1493,1493,634016223,221.05,103157642,0.024555828422307968,-0.16980624198913574,238.82400512695312,-0.0026527654845267534
3557642.829,1493,1493,634016224,221.07,103157639,0.02918555587530136,-0.1677122265100479,238.81349182128906,-0.002196268877014518
3557742.829,1493,1493,634016224,221.07,103157639,0.026651106774806976,-0.16588379442691803,238.81141662597656,-0.0021978849545121193
3557842.829,1493,1493,634016223,221.08,103157638,0.03343850001692772,-0.16840603947639465,238.78428649902344,-0.0025465688668191433
3557942.829,1493,1493,634016223,221.08,103157638,0.029914751648902893,-0.16065609455108643,238.7939453125,-0.0027624466456472874
3558042.829,1493,1493,634016223,221.09,103157636,0.03906415402889252,-0.156505286693573,238.76333618164062,-0.0028258590027689934
3558142.829,1493,1493,634016223,221.09,103157636,0.03165876865386963,-0.16561764478683472,238.74859619140625,-0.0023849266581237316
3558242.829,1493,1493,634016223,221.08,103157634,0.028314607217907906,-0.17051653563976288,238.72161865234375,-0.001573470188304782
3558342.829,1493,1493,634016223,221.08,103157634,0.03253781050443649,-0.1680527776479721,238.70651245117188,-0.0018713021418079734
3558442.829,1493,1493,634016222,221.09,103157633,0.026127994060516357,-0.16505713760852814,238.67860412597656,-0.002569856122136116
3558542.829,1493,1493,634016222,221.09,103157633,0.028128374367952347,-0.16912545263767242,238.69992065429688,-0.0024465294554829597
3558642.829,1493,1493,634016221,221.08,103157632,0.030022885650396347,-0.1595819741487503,238.70169067382812,-0.0024410842452198267
3558742.829,1493,1493,634016221,221.08,103157632,0.022807825356721878,-0.16384074091911316,238.6761474609375,-0.00223183142952621
3558842.829,1493,1493,634016221,221.1,103157630,0.038907453417778015,-0.16362258791923523,238.64990234375,-0.002589120529592037
3558942.829,1493,1493,634016221,221.1,103157630,0.03894137218594551,-0.16464899480342865,238.6584014892578,-0.002775922417640686
3559042.829,1493,1493,634016221,221.1,103157629,0.03802452236413956,-0.1610334813594818,238.65643310546875,-0.0025583982933312654
3559142.829,1493,1493,634016221,221.1,103157629,0.03340070694684982,-0.16164755821228027,238.628173828125,-0.0020231413654983044
3559242.829,1493,1493,634016220,221.09,103157627,0.029037734493613243,-0.16132377088069916,238.62014770507812,-0.0018074188847094774
3559342.829,1493,1493,634016220,221.09,103157627,0.01824590563774109,-0.15938928723335266,238.64096069335938,-0.0022110880818217993
3559442.829,1493,1493,634016220,221.1,103157625,0.02662396803498268,-0.17109298706054688,238.61669921875,-0.0025549985002726316
3559542.829,1493,1493,634016220,221.1,103157625,0.02570517733693123,-0.16693782806396484,238.6173095703125,-0.0029354451689869165
3559642.829,1493,1493,634016219,221.1,103157624,0.027634382247924805,-0.1642480492591858,238.62890625,-0.0026584574952721596
3559742.829,1493,1493,634016219,221.1,103157624,0.031404927372932434,-0.15524904429912567,238.6499481201172,-0.0021950809750705957
3559842.829,1493,1493,634016219,221.1,103157623,0.038008011877536774,-0.15402650833129883,238.6209716796875,-0.0023025828413665295
3559942.829,1493,1493,634016219,221.1,103157623,0.04293198138475418,-0.1588740348815918,238.58294677734375,-0.0025507721584290266
3560042.829,1493,1493,634016219,221.11,103157622,0.037730518728494644,-0.16131772100925446,238.59036254882812,-0.0027854260988533497
3560142.829,1493,1493,634016219,221.11,103157622,0.023244209587574005,-0.1684371381998062,238.581298828125,-0.0026180932763963938
3560242.829,1493,1493,634016218,221.1,103157620,0.022309940308332443,-0.16426901519298553,238.5509796142578,-0.001838224590755999
3560342.829,1493,1493,634016218,221.1,103157620,0.022784128785133362,-0.16783501207828522,238.53744506835938,-0.0013520584907382727
3560442.829,1493,1493,634016218,221.1,103157619,0.024679483845829964,-0.1642657071352005,238.5299835205078,-0.0018495544791221619
3560542.829,1493,1493,634016218,221.1,103157619,0.025532683357596397,-0.15984870493412018,238.55380249023438,-0.0029748398810625076
3560642.829,1493,1493,634016217,221.1,103157617,0.03167300671339035,-0.15963828563690186,238.5301513671875,-0.003515422809869051
3560742.829,1493,1493,634016217,221.1,103157617,0.03562018275260925,-0.16677075624465942,238.53530883789062,-0.002948312321677804
3560842.829,1493,1493,634016217,221.09,103157616,0.03967209905385971,-0.16548345983028412,238.54847717285156,-0.0023971579503268003
3560942.829,1493,1493,634016217,221.09,103157616,0.03694659471511841,-0.16797073185443878,238.5276336669922,-0.0019549732096493244
3561042.829,1493,1493,634016217,221.09,103157614,0.029250554740428925,-0.1665121465921402,238.5101318359375,-0.00205791462212801
3561142.829,1493,1493,634016217,221.09,103157614,0.02937382087111473,-0.1655997931957245,238.47817993164062,-0.002460506744682789
3561242.829,1493,1493,634016216,221.09,103157613,0.014796056784689426,-0.16116143763065338,238.4801025390625,-0.0027443915605545044
3561342.829,1493,1493,634016216,221.09,103157613,0.02291755937039852,-0.16398559510707855,238.46759033203125,-0.0026202211156487465
3561442.829,1493,1493,634016216,221.1,103157611,0.035357266664505005,-0.1625516563653946,238.48651123046875,-0.002399228513240814
3561542.829,1493,1493,634016216,221.1,103157611,0.03203893080353737,-0.15783561766147614,238.4913330078125,-0.002493202453479171
3561642.829,1493,1493,634016215,221.1,103157610,0.037449099123477936,-0.1595996618270874,238.49400329589844,-0.001824290375225246
3561742.829,1493,1493,634016215,221.1,103157610,0.036296501755714417,-0.16599303483963013,238.49526977539062,-0.0017560290871188045
3561842.829,1493,1493,634016215,221.1,103157609,0.0331953726708889,-0.15961694717407227,238.47555541992188,-0.0024753683246672153
3561942.829,1493,1493,634016215,221.1,103157609,0.02352999523282051,-0.1662377268075943,238.44842529296875,-0.002648609224706888
3562042.829,1493,1493,634016215,221.1,103157607,0.025808313861489296,-0.1615884006023407,238.425048828125,-0.002453119959682226
3562142.829,1493,1493,634016215,221.1,103157607,0.023421496152877808,-0.1624796837568283,238.41204833984375,-0.0021027852781116962
3562242.829,1493,1493,634016214,221.1,103157606,0.02734898403286934,-0.16292956471443176,238.4188232421875,-0.001608025748282671
3562342.829,1493,1493,634016214,221.1,103157606,0.029825283214449883,-0.15524446964263916,238.40814208984375,-0.0019115102477371693
3562442.829,1493,1493,634016214,221.1,103157605,0.029196105897426605,-0.16044464707374573,238.40919494628906,-0.0024663573130965233
3562542.829,1493,1493,634016214,221.1,103157605,0.030334219336509705,-0.1648489385843277,238.4210968017578,-0.0025190941523760557
3562642.829,1493,1493,634016214,221.11,103157603,0.03333191201090813,-0.16286137700080872,238.39306640625,-0.0023305066861212254
3562742.829,1493,1493,634016214,221.11,103157603,0.03556408733129501,-0.16491210460662842,238.3908233642578,-0.0019178730435669422
3562842.829,1493,1493,634016214,221.12,103157601,0.03996393084526062,-0.16404515504837036,238.3480224609375,-0.001869522500783205
3562942.829,1493,1493,634016214,221.12,103157601,0.031763073056936264,-0.1644877940416336,238.35986328125,-0.0021708726417273283
3563042.829,1493,1493,634016214,221.12,103157599,0.022281203418970108,-0.16011328995227814,238.36569213867188,-0.0020087193697690964
3563142.829,1493,1493,634016214,221.12,103157599,0.02735401690006256,-0.15941250324249268,238.37957763671875,-0.001983624417334795
3563242.829,1493,1493,634016214,221.13,103157597,0.031028803437948227,-0.1615426391363144,238.34005737304688,-0.001594648463651538
3563342.829,1493,1493,634016214,221.13,103157597,0.027106858789920807,-0.15856365859508514,238.31686401367188,-0.0022659304086118937
3563442.829,1493,1493,634016213,221.12,103157596,0.03439156711101532,-0.15749895572662354,238.28497314453125,-0.002615662757307291
3563542.829,1493,1493,634016213,221.12,103157596,0.03646475076675415,-0.1516120582818985,238.24380493164062,-0.002109482418745756
3563642.829,1493,1493,634016213,221.12,103157595,0.03426678478717804,-0.15978379547595978,238.2261505126953,-0.001319739269092679
3563742.829,1493,1493,634016213,221.12,103157595,0.03634857386350632,-0.16806311905384064,238.20863342285156,-0.0017090016044676304
3563842.829,1493,1493,634016213,221.13,103157593,0.027665244415402412,-0.16562411189079285,238.2466278076172,-0.002359201665967703
