timestamp(ms),RCIN.C1,RCIN.C3,GPS.Lat,GPS.Alt,GPS.Lng,IMU.AccX,IMU.AccY,DCM.Yaw,IMU.GyrZ
3872702.731,1479,1496,634013904,220.98,103149425,0.031801022589206696,-0.1693314164876938,58.86172103881836,-0.00043469417141750455
3872802.731,1479,1496,634013904,220.98,103149425,0.03909758850932121,-0.16052591800689697,58.8796501159668,-0.0004918427439406514
3872902.731,1479,1496,634013904,220.99,103149425,0.033986158668994904,-0.16447991132736206,58.876495361328125,-0.0007173286867327988
3873002.731,1479,1496,634013904,220.99,103149425,0.03348653018474579,-0.16804803907871246,58.87905502319336,-0.0009503691690042615
3873102.731,1479,1496,634013904,220.99,103149425,0.03216635435819626,-0.1591653972864151,58.904991149902344,-0.0008887888980098069
3873202.731,1479,1496,634013904,220.99,103149425,0.03104196861386299,-0.16159194707870483,58.91972351074219,-0.00020976935047656298
3873302.731,1479,1496,634013904,221.01,103149426,0.03263287618756294,-0.1699548214673996,58.935909271240234,-0.0003364371950738132
3873402.731,1479,1496,634013904,221.01,103149426,0.0335313118994236,-0.16080445051193237,58.951107025146484,-0.0005146052571944892
3873502.731,1479,1496,634013904,221.01,103149426,0.02327790856361389,-0.15987366437911987,58.95090103149414,-0.0003338282695040107
3873602.731,1479,1496,634013904,221.01,103149426,0.03325602412223816,-0.16195210814476013,58.94414520263672,-0.0005256376462057233
3873702.731,1479,1496,634013904,221.01,103149427,0.030055643990635872,-0.15743716061115265,58.93833541870117,-0.0005063393618911505
3873802.731,1479,1496,634013904,221.01,103149427,0.027621816843748093,-0.15909381210803986,58.9273567199707,-0.00033919274574145675
3873902.731,1479,1496,634013904,221.02,103149426,0.02951655350625515,-0.1684090495109558,58.908329010009766,-0.0006714847404509783
3874002.731,1479,1496,634013904,221.02,103149426,0.03741659224033356,-0.15997537970542908,58.902313232421875,-0.0007702196598984301
3874102.731,1479,1496,634013904,221.03,103149426,0.0319085493683815,-0.16383510828018188,58.888336181640625,-0.000603796448558569
3874202.731,1479,1496,634013904,221.03,103149426,0.03176966309547424,-0.16407375037670135,58.88006591796875,-0.0006093270494602621
3874302.731,1479,1496,634013904,221.03,103149426,0.02603936940431595,-0.16048948466777802,58.87139129638672,-0.0010915379971265793
3874402.731,1479,1496,634013904,221.03,103149426,0.026554280892014503,-0.15452243387699127,58.8613166809082,-0.0008816095069050789
3874502.731,1479,1496,634013904,221.04,103149426,0.031645938754081726,-0.1610843539237976,58.85515594482422,-0.0003804953012149781
3874602.731,1479,1496,634013904,221.04,103149426,0.0381486713886261,-0.15630291402339935,58.85310745239258,-0.00022336983238346875
3874702.731,1479,1496,634013904,221.04,103149427,0.039571363478899,-0.16003566980361938,58.83982849121094,-0.0007633721106685698
3874802.731,1479,1496,634013904,221.04,103149427,0.03274916857481003,-0.1607004702091217,58.83753967285156,-0.00039780873339623213
3874902.731,1479,1496,634013905,221.04,103149427,0.03431161865592003,-0.15890468657016754,58.848899841308594,-0.0006815230008214712
3875002.731,1479,1496,634013905,221.04,103149427,0.026691168546676636,-0.16811156272888184,58.835906982421875,-0.0007951095467433333
3875102.731,1479,1496,634013904,221.05,103149427,0.02771979570388794,-0.16482271254062653,58.81779479980469,-0.0006294085178524256
3875202.731,1479,1496,634013904,221.05,103149427,0.03276967257261276,-0.1639697104692459,58.80646514892578,-0.0006887198542244732
3875302.731,1479,1496,634013904,221.06,103149427,0.029809631407260895,-0.1594139188528061,58.80467987060547,-0.0006056594429537654
3875402.731,1479,1496,634013904,221.06,103149427,0.026904752478003502,-0.16551950573921204,58.8087043762207,-0.0002051554329227656
3875502.731,1479,1496,634013905,221.07,103149427,0.033324792981147766,-0.15747332572937012,58.80629348754883,-0.0005500301485881209
3875602.731,1479,1496,634013905,221.07,103149427,0.033112525939941406,-0.1564934253692627,58.79313659667969,-0.0005877315998077393
3875702.731,1479,1496,634013904,221.06,103149426,0.03457115590572357,-0.16101676225662231,58.77471160888672,-0.00046893127728253603
3875802.731,1479,1496,634013904,221.06,103149426,0.03401990234851837,-0.16826412081718445,58.77289962768555,-0.0006344447028823197
3875902.731,1479,1496,634013905,221.07,103149427,0.031184839084744453,-0.16983364522457123,58.762367248535156,-0.0006671440787613392
3876002.731,1479,1496,634013905,221.07,103149427,0.02754977159202099,-0.16412705183029175,58.75756072998047,-0.0008340423228219151
3876102.731,1479,1496,634013905,221.07,103149428,0.03132614865899086,-0.16247805953025818,58.745819091796875,-0.000816905579995364
3876202.731,1479,1496,634013905,221.07,103149428,0.027489416301250458,-0.16308507323265076,58.73297882080078,-0.0006963590858504176
3876302.731,1479,1496,634013905,221.09,103149427,0.036944933235645294,-0.1669934093952179,58.739501953125,-0.0005502526182681322
3876402.731,1479,1496,634013905,221.09,103149427,0.035409215837717056,-0.15851370990276337,58.74787521362305,-0.00061991618713364
3876502.731,1479,1496,634013904,221.09,103149428,0.02926589921116829,-0.16258317232131958,58.7388916015625,-0.0007300417637452483
3876602.731,1479,1496,634013904,221.09,103149428,0.03303509205579758,-0.15995819866657257,58.7166862487793,-0.0005688255187124014
3876702.731,1479,1496,634013904,221.09,103149428,0.02784198708832264,-0.16409607231616974,58.708831787109375,-0.0007849028334021568
3876802.731,1479,1496,634013904,221.09,103149428,0.031189635396003723,-0.1621454507112503,58.710628509521484,-0.0005037204828113317
3876902.731,1479,1496,634013904,221.09,103149428,0.03282797336578369,-0.1665915697813034,58.7208137512207,-0.0006993376882746816
3877002.731,1479,1496,634013904,221.09,103149428,0.03014797903597355,-0.16428187489509583,58.73678207397461,-0.0009187469258904457
3877102.731,1479,1496,634013904,221.1,103149429,0.03495853394269943,-0.16008475422859192,58.73898696899414,-0.0004551582969725132
3877202.731,1479,1496,634013904,221.1,103149429,0.03258137404918671,-0.16001679003238678,58.72855758666992,-0.00039053120417520404
3877302.731,1479,1496,634013904,221.11,103149429,0.02677205018699169,-0.15784630179405212,58.72470474243164,-0.0006765475263819098
3877402.731,1479,1496,634013904,221.11,103149429,0.03238459676504135,-0.16424354910850525,58.72063446044922,-0.0005418173386715353
3877502.731,1486,1496,634013904,221.1,103149429,0.039690159261226654,-0.16058456897735596,58.7187385559082,-0.0007729340577498078
3877602.731,1487,1496,634013904,221.1,103149429,0.03717486932873726,-0.16088733077049255,58.710636138916016,-0.0008341895882040262
3877702.731,1487,1496,634013904,221.09,103149429,0.034592412412166595,-0.16746766865253448,58.69062423706055,-0.0007907503750175238
3877802.731,1487,1496,634013904,221.09,103149429,0.03321869671344757,-0.15764296054840088,58.68324661254883,-0.00022455144790001214
3877902.731,1487,1496,634013904,221.11,103149430,0.028850991278886795,-0.16146120429039001,58.68500900268555,-0.00033294723834842443
3878002.731,1502,1496,634013904,221.11,103149430,0.02660885825753212,-0.16043327748775482,58.66008758544922,-0.0007746141054667532
3878102.731,1503,1496,634013904,221.1,103149429,0.027078764513134956,-0.15669313073158264,58.65132141113281,-0.0006471732631325722
3878202.731,1518,1496,634013904,221.1,103149429,0.03122791461646557,-0.16054902970790863,58.646793365478516,-0.000892842304892838
3878302.731,1518,1496,634013904,221.11,103149430,0.03616584837436676,-0.1568499505519867,58.63386535644531,-0.00100680289324373
3878402.731,1701,1496,634013904,221.11,103149430,0.029513901099562645,-0.16065256297588348,58.620445251464844,-0.0005695100990124047
3878502.731,1701,1496,634013904,221.12,103149430,0.07187623530626297,-0.09215997159481049,58.77055740356445,0.008233712986111641
3878602.731,1828,1496,634013904,221.12,103149430,0.004988579079508781,-0.12847372889518738,59.10036087036133,0.043020520359277725
3878702.731,1901,1496,634013903,221.12,103149430,-0.1372976303100586,-0.008259543217718601,59.77306365966797,0.0778624638915062
3878802.731,1901,1496,634013903,221.12,103149430,-0.5813413262367249,0.3703170418739319,61.4940071105957,0.20075252652168274
3878902.731,1901,1496,634013902,221.12,103149427,-0.5304131507873535,0.22343777120113373,64.28924560546875,0.4287370443344116
3879002.731,1901,1496,634013902,221.12,103149427,-0.4364277422428131,0.10286880284547806,67.77104187011719,0.5932577848434448
3879102.731,1901,1496,634013899,221.12,103149418,-0.4105674624443054,-0.04922349378466606,71.8657455444336,0.7049343585968018
3879202.731,1901,1496,634013899,221.12,103149418,-0.399228036403656,-0.17928363382816315,76.49127197265625,0.8034159541130066
3879302.731,1901,1496,634013896,221.1,103149407,-0.4134780764579773,-0.28630468249320984,81.62155151367188,0.8907750248908997
3879402.731,1901,1496,634013896,221.1,103149407,-0.31716692447662354,-0.5486113429069519,87.02423095703125,0.9575860500335693
3879502.731,1901,1496,634013894,221.11,103149392,-0.19204135239124298,-0.5770969390869141,92.5262680053711,0.9946337342262268
3879602.731,1901,1496,634013894,221.11,103149392,-0.11999095976352692,-0.5705397129058838,98.01351165771484,0.9971836805343628
3879702.731,1901,1496,634013894,221.11,103149377,-0.20098626613616943,-0.5653269290924072,103.60050201416016,0.9932429194450378
3879802.731,1901,1496,634013894,221.11,103149377,-0.22253674268722534,-0.4048129618167877,109.29391479492188,1.001356840133667
3879902.731,1901,1496,634013895,221.1,103149359,-0.22249096632003784,-0.37301889061927795,115.1788101196289,1.0219062566757202
3880002.731,1901,1496,634013895,221.1,103149359,-0.2144995480775833,-0.4804449677467346,121.05579376220703,1.0383036136627197
3880102.731,1901,1496,634013897,221.09,103149343,-0.12952661514282227,-0.47758543491363525,126.83635711669922,1.0282808542251587
3880202.731,1901,1496,634013897,221.09,103149343,-0.05228155851364136,-0.42997533082962036,132.48768615722656,1.0039780139923096
3880302.731,1901,1496,634013902,221.11,103149331,-0.05162473022937775,-0.5083736181259155,138.0321807861328,0.973404049873352
3880402.731,1901,1496,634013902,221.11,103149331,-0.1415039747953415,-0.5218515396118164,143.4896240234375,0.944959282875061
3880502.731,1901,1496,634013909,221.13,103149319,-0.17768236994743347,-0.5103102922439575,149.01248168945312,0.9314509630203247
3880602.731,1901,1496,634013909,221.13,103149319,-0.21897704899311066,-0.44910818338394165,154.5367431640625,0.930873453617096
3880702.731,1901,1496,634013917,221.17,103149309,-0.3386003375053406,-0.36204683780670166,160.08123779296875,0.9284307956695557
3880802.731,1901,1496,634013917,221.17,103149309,-0.18461233377456665,-0.26518911123275757,165.63673400878906,0.9341961145401001
3880902.731,1901,1496,634013925,221.21,103149305,-0.18374939262866974,-0.3348942995071411,171.18838500976562,0.9312272071838379
3881002.731,1901,1496,634013925,221.21,103149305,-0.18082311749458313,-0.42452940344810486,176.7942657470703,0.9348194599151611
3881102.731,1901,1496,634013934,221.21,103149300,0.6228266358375549,-0.30200743675231934,182.02879333496094,0.9032369256019592
3881202.731,1901,1496,634013934,221.21,103149300,0.2898394763469696,-0.3583754897117615,187.1961669921875,0.8687480688095093
3881302.731,1901,1496,634013940,221.22,103149301,0.023118799552321434,-0.2760620713233948,192.28855895996094,0.8479040265083313
3881402.731,1901,1496,634013940,221.22,103149301,-0.28064778447151184,-0.42092660069465637,197.4642791748047,0.8553313612937927
3881502.731,1901,1496,634013946,221.22,103149304,-0.322970449924469,-0.35523325204849243,202.64085388183594,0.8640262484550476
3881602.731,1901,1496,634013946,221.22,103149304,-0.38030391931533813,-0.2011239230632782,207.9229278564453,0.870502233505249
3881702.731,1901,1496,634013953,221.23,103149310,-0.30096548795700073,-0.41986432671546936,213.1880645751953,0.8808943629264832
3881802.731,1901,1496,634013953,221.23,103149310,-0.16659186780452728,-0.02703898772597313,218.4734649658203,0.8839162588119507
3881902.731,1901,1496,634013959,221.23,103149318,-0.1418030709028244,-0.20080620050430298,223.79510498046875,0.8892822861671448
3882002.731,1901,1496,634013959,221.23,103149318,0.09032700955867767,-0.4015910029411316,228.9879608154297,0.8864920139312744
3882102.731,1901,1496,634013966,221.24,103149330,-0.23544177412986755,-0.22630912065505981,234.10122680664062,0.8636437654495239
3882202.731,1901,1496,634013966,221.24,103149330,-0.08367611467838287,-0.18807198107242584,239.23898315429688,0.8670970797538757
3882302.731,1901,1496,634013971,221.24,103149342,-0.21947278082370758,-0.4381064474582672,244.26919555664062,0.8617619276046753
3882402.731,1901,1496,634013971,221.24,103149342,-0.0441187247633934,-0.3183366060256958,249.17498779296875,0.8433258533477783
3882502.731,1901,1496,634013975,221.24,103149357,-0.04304699972271919,-0.34630087018013,253.9254150390625,0.8221008777618408
3882602.731,1901,1496,634013975,221.24,103149357,-0.01148149836808443,-0.4229707717895508,258.55865478515625,0.7971089482307434
3882702.731,1901,1496,634013977,221.23,103149371,-0.07124536484479904,-0.30823850631713867,263.239501953125,0.7881616950035095
3882802.731,1901,1496,634013977,221.23,103149371,-0.16573742032051086,-0.09406699240207672,267.9349365234375,0.7972433567047119
3882902.731,1901,1496,634013979,221.23,103149388,-0.10102257877588272,-0.3294699192047119,272.67498779296875,0.8131523132324219
3883002.731,1901,1496,634013979,221.23,103149388,-0.2509414553642273,-0.22038710117340088,277.3756408691406,0.8172704577445984
3883102.731,1901,1496,634013979,221.23,103149404,-0.15809738636016846,-0.20623856782913208,282.0931396484375,0.8198741674423218
3883202.731,1901,1496,634013979,221.23,103149404,-0.20417311787605286,-0.29778409004211426,286.8331604003906,0.8259434700012207
3883302.731,1901,1496,634013978,221.23,103149421,-0.0843786969780922,-0.27456578612327576,291.6824951171875,0.8315724730491638
3883402.731,1901,1496,634013978,221.23,103149421,-0.2854515314102173,-0.15773150324821472,296.5591735839844,0.8473069667816162
3883502.731,1901,1496,634013977,221.22,103149437,-0.178862065076828,-0.48217350244522095,301.4449157714844,0.8650603294372559
3883602.731,1901,1496,634013977,221.22,103149437,-0.0831194818019867,-0.3809047341346741,306.30401611328125,0.8654780387878418
3883702.731,1901,1496,634013973,221.21,103149453,-0.08427536487579346,-0.3300376534461975,311.0838623046875,0.8550922870635986
3883802.731,1901,1496,634013973,221.21,103149453,-0.04656493663787842,-0.5007672309875488,315.738037109375,0.837609052658081
3883902.731,1901,1496,634013968,221.2,103149468,-0.18665477633476257,-0.34866082668304443,320.3426513671875,0.8193618655204773
3884002.731,1901,1496,634013968,221.2,103149468,-0.15212464332580566,-0.28087398409843445,324.8331298828125,0.8068665862083435
3884102.731,1901,1496,634013962,221.2,103149480,-0.14538833498954773,-0.3135913014411926,329.2458801269531,0.8048081398010254
3884202.731,1901,1496,634013962,221.2,103149480,-0.06561337411403656,-0.2684125304222107,333.608642578125,0.7912118434906006
3884302.731,1901,1496,634013957,221.2,103149489,-0.25418800115585327,-0.18284845352172852,337.93280029296875,0.7874641418457031
3884402.731,1901,1496,634013957,221.2,103149489,0.20450849831104279,-0.30223938822746277,342.093017578125,0.7696688175201416
3884502.731,1901,1496,634013950,221.19,103149497,-0.2821166515350342,-0.18744632601737976,346.34893798828125,0.7566083669662476
3884602.731,1901,1496,634013950,221.19,103149497,0.015708602964878082,-0.2287626713514328,350.56719970703125,0.7657798528671265
3884702.731,1901,1496,634013943,221.17,103149501,-0.16647404432296753,-0.3101848363876343,354.75982666015625,0.7664631605148315
3884802.731,1901,1496,634013943,221.17,103149501,-0.17305177450180054,-0.24181699752807617,358.97119140625,0.7651848793029785
3884902.731,1901,1496,634013935,221.19,103149505,-0.2919163107872009,-0.2196902632713318,3.2384305000305176,0.7749045491218567
3885002.731,1901,1496,634013935,221.19,103149505,-0.01712464913725853,-0.3295935094356537,7.56928014755249,0.7830615043640137
3885102.731,1901,1496,634013927,221.18,103149505,-0.3436768054962158,-0.2944393754005432,11.888763427734375,0.7907280921936035
3885202.731,1901,1496,634013927,221.18,103149505,-0.20925667881965637,-0.35689666867256165,16.352890014648438,0.8078261017799377
3885302.731,1901,1496,634013918,221.21,103149501,-0.15661847591400146,-0.3632819354534149,20.785964965820312,0.8159354329109192
3885402.731,1901,1496,634013918,221.21,103149501,-0.21767666935920715,-0.32349976897239685,25.221498489379883,0.8126305341720581
3885502.731,1901,1496,634013912,221.19,103149494,-0.1686795949935913,-0.31608346104621887,29.603374481201172,0.8081802725791931
3885602.731,1901,1496,634013912,221.19,103149494,-0.2651519179344177,-0.35303372144699097,34.0047721862793,0.7987511157989502
3885702.731,1901,1496,634013904,221.22,103149486,-0.1442137211561203,-0.3229922652244568,38.34017562866211,0.7977712750434875
3885802.731,1901,1496,634013904,221.22,103149486,-0.3255555033683777,-0.3344164788722992,42.67247009277344,0.7896002531051636
3885902.731,1901,1496,634013898,221.22,103149475,-0.20427429676055908,-0.24346165359020233,47.01474380493164,0.7945435643196106
3886002.731,1901,1496,634013898,221.22,103149475,-0.026062188670039177,-0.2388550043106079,51.35069274902344,0.7940638065338135
3886102.731,1901,1496,634013891,221.22,103149463,0.45809054374694824,-0.190548837184906,55.501869201660156,0.7739118337631226
3886202.731,1901,1496,634013891,221.22,103149463,-0.20291626453399658,-0.32556793093681335,59.83010482788086,0.7706266045570374
3886302.731,1901,1496,634013886,221.21,103149449,-0.14629536867141724,-0.35594096779823303,64.2227554321289,0.7896177768707275
3886402.731,1901,1496,634013886,221.21,103149449,-0.29305917024612427,-0.3354477286338806,68.72433471679688,0.8086035847663879
3886502.731,1901,1496,634013881,221.19,103149433,-0.1888672411441803,-0.31606072187423706,73.23302459716797,0.8152790665626526
3886602.731,1901,1496,634013881,221.19,103149433,-0.3165731430053711,-0.3170014023780823,77.79588317871094,0.8184495568275452
3886702.731,1901,1496,634013878,221.17,103149416,0.03282138705253601,-0.25920379161834717,82.37187194824219,0.8266722559928894
3886802.731,1901,1496,634013878,221.17,103149416,-0.16080577671527863,-0.17335130274295807,87.08370971679688,0.8325858116149902
3886902.731,1901,1496,634013876,221.14,103149402,-0.12137006968259811,-0.27574411034584045,91.84805297851562,0.8504313826560974
3887002.731,1526,1496,634013876,221.14,103149402,-0.03868609666824341,-0.3572513461112976,96.54702758789062,0.8474961519241333
3887102.731,1526,1496,634013875,221.11,103149386,0.6322859525680542,-0.2769348621368408,100.92088317871094,0.8246395587921143
3887202.731,1500,1496,634013875,221.11,103149386,0.1712379902601242,-0.5250961780548096,104.17649841308594,0.6607298851013184
3887302.731,1497,1496,634013874,221.09,103149375,0.23236721754074097,-0.5769765377044678,106.88613891601562,0.49148017168045044
3887402.731,1497,1496,634013874,221.09,103149375,0.013259125873446465,-0.0943734347820282,109.33004760742188,0.4260932207107544
3887502.731,1497,1496,634013874,221.09,103149368,0.16904030740261078,-0.46920233964920044,111.51651763916016,0.3916477560997009
3887602.731,1497,1496,634013874,221.09,103149368,0.12295159697532654,-0.4087649881839752,113.2967758178711,0.3338102400302887
3887702.731,1497,1496,634013875,221.06,103149361,0.2731483280658722,-0.10850949585437775,114.6778335571289,0.2585448622703552
3887802.731,1497,1496,634013875,221.06,103149361,0.16439154744148254,-0.13220925629138947,115.75164794921875,0.19125992059707642
3887902.731,1497,1496,634013875,221.06,103149358,0.11638595163822174,-0.22967176139354706,116.61446380615234,0.14126022160053253
3888002.731,1497,1496,634013875,221.06,103149358,0.17063450813293457,-0.07371535897254944,117.25067901611328,0.10647518187761307
3888102.731,1497,1496,634013876,221.04,103149355,0.11976108700037003,-0.10384827852249146,117.7275390625,0.0779523104429245
3888202.731,1497,1496,634013876,221.04,103149355,0.057942647486925125,-0.2216065526008606,118.14103698730469,0.05901145190000534
3888302.731,1497,1496,634013875,221.02,103149353,0.008410956710577011,-0.09304401278495789,118.53096008300781,0.05344262719154358
3888402.731,1497,1496,634013875,221.02,103149353,0.02125115506350994,-0.17842167615890503,118.93637084960938,0.05295393243432045
3888502.731,1497,1496,634013875,221,103149351,-0.008605674840509892,-0.26717767119407654,119.30673217773438,0.04878540337085724
3888602.731,1497,1496,634013875,221,103149351,0.0844392254948616,-0.2024020552635193,119.56491088867188,0.036028046160936356
3888702.731,1497,1496,634013875,221,103149349,0.08709297329187393,-0.14822204411029816,119.7122802734375,0.015309719368815422
3888802.731,1497,1496,634013875,221,103149349,0.09729824215173721,-0.1367696076631546,119.77958679199219,-0.0048308908008039
3888902.731,1497,1496,634013875,220.96,103149350,0.04661616310477257,-0.0661606565117836,119.81262969970703,-0.014723113738000393
3889002.731,1497,1496,634013875,220.96,103149350,0.020245952531695366,-0.07883523404598236,119.8804931640625,-0.012185219675302505
3889102.731,1497,1496,634013874,220.94,103149349,-0.03743492066860199,-0.19104132056236267,120.0206527709961,-0.00024652009597048163
3889202.731,1497,1496,634013874,220.94,103149349,0.02664419636130333,-0.19515323638916016,120.21855926513672,0.00878567062318325
3889302.731,1497,1496,634013873,220.89,103149350,0.07015367597341537,-0.20847569406032562,120.31902313232422,0.003069098573178053
3889402.731,1497,1496,634013873,220.89,103149350,0.09839005768299103,-0.2020825743675232,120.27500915527344,-0.01793202944099903
3889502.731,1497,1496,634013872,220.86,103149350,0.07040713727474213,-0.13208737969398499,120.13750457763672,-0.038279175758361816
3889602.731,1497,1496,634013872,220.86,103149350,0.016741758212447166,-0.11996596306562424,119.98673248291016,-0.04389331489801407
3889702.731,1497,1496,634013872,220.85,103149349,-0.029990384355187416,-0.1344785988330841,119.93466186523438,-0.0313076488673687
3889802.731,1497,1496,634013872,220.85,103149349,-0.010324434377253056,-0.15824811160564423,119.99869537353516,-0.013012710027396679
3889902.731,1497,1496,634013873,220.87,103149347,0.024363016709685326,-0.16821444034576416,120.094482421875,-0.004335740115493536
3890002.731,1496,1496,634013873,220.87,103149347,0.07200663536787033,-0.19954553246498108,120.1153335571289,-0.011772534810006618
3890102.731,1496,1496,634013875,220.92,103149346,0.06195356696844101,-0.15461589395999908,120.0401611328125,-0.027569018304347992
3890202.731,1496,1496,634013875,220.92,103149346,0.04118786379694939,-0.12003301084041595,119.91061401367188,-0.03844218701124191
3890302.731,1496,1496,634013876,220.94,103149344,-0.008805633522570133,-0.14046192169189453,119.81458282470703,-0.03620707243680954
3890402.731,1496,1496,634013876,220.94,103149344,-0.0015682252123951912,-0.15040020644664764,119.78952026367188,-0.024279853329062462
3890502.731,1496,1496,634013876,220.93,103149343,0.027899157255887985,-0.18327781558036804,119.79837036132812,-0.014516426250338554
3890602.731,1496,1496,634013876,220.93,103149343,0.04344632476568222,-0.18224219977855682,119.81634521484375,-0.013354528695344925
3890702.731,1496,1496,634013876,220.92,103149342,0.03780616819858551,-0.15569381415843964,119.8077163696289,-0.017207585275173187
3890802.731,1496,1496,634013876,220.92,103149342,0.038647640496492386,-0.13030187785625458,119.77972412109375,-0.020656060427427292
3890902.731,1496,1496,634013876,220.92,103149341,0.03049812838435173,-0.15653511881828308,119.71212005615234,-0.023175453767180443
3891002.731,1496,1496,634013876,220.92,103149341,0.02594272419810295,-0.17742812633514404,119.60454559326172,-0.02543836459517479
3891102.731,1496,1496,634013877,220.93,103149340,0.010048274882137775,-0.17052890360355377,119.54456329345703,-0.023715224117040634
3891202.731,1496,1496,634013877,220.93,103149340,0.01079846266657114,-0.17234693467617035,119.55072021484375,-0.017567763105034828
3891302.731,1496,1496,634013878,220.93,103149339,0.0222280565649271,-0.14312484860420227,119.57166290283203,-0.010639949701726437
3891402.731,1496,1496,634013878,220.93,103149339,0.040252454578876495,-0.14755463600158691,119.5958023071289,-0.0075630745850503445
3891502.731,1496,1496,634013878,220.91,103149339,0.06241939961910248,-0.15397533774375916,119.59056854248047,-0.011569790542125702
3891602.731,1496,1496,634013878,220.91,103149339,0.04205711930990219,-0.17470316588878632,119.53319549560547,-0.019687751308083534
3891702.731,1496,1496,634013876,220.87,103149339,0.027486035600304604,-0.17835849523544312,119.46098327636719,-0.023926980793476105
3891802.731,1496,1496,634013876,220.87,103149339,0.010024386458098888,-0.16183729469776154,119.42792510986328,-0.01984305866062641
3891902.731,1496,1496,634013876,220.82,103149338,-0.0016465517692267895,-0.14834056794643402,119.4637451171875,-0.010809390805661678
3892002.731,1496,1496,634013876,220.82,103149338,0.017638303339481354,-0.14706850051879883,119.53934478759766,-0.003137103980407119
3892102.731,1496,1496,634013876,220.82,103149337,0.045389123260974884,-0.17200544476509094,119.5888442993164,-0.004314922261983156
3892202.731,1496,1496,634013876,220.82,103149337,0.059541840106248856,-0.16571003198623657,119.5840072631836,-0.011733239516615868
3892302.731,1496,1496,634013876,220.81,103149336,0.04250866174697876,-0.1643577218055725,119.53376770019531,-0.018040914088487625
3892402.731,1496,1496,634013876,220.81,103149336,0.027266204357147217,-0.1551932990550995,119.46549224853516,-0.018647201359272003
3892502.731,1496,1496,634013876,220.8,103149335,0.009524187073111534,-0.15925541520118713,119.43500518798828,-0.014383174479007721
3892602.731,1496,1496,634013876,220.8,103149335,0.005074965767562389,-0.15750712156295776,119.45562744140625,-0.007128098048269749
3892702.731,1496,1496,634013877,220.79,103149333,0.01952226459980011,-0.16013988852500916,119.50202178955078,-0.0012532197870314121
3892802.731,1496,1496,634013877,220.79,103149333,0.04645169898867607,-0.1596158742904663,119.5185775756836,-0.0019472576677799225
3892902.731,1496,1496,634013877,220.79,103149333,0.0663214698433876,-0.15437406301498413,119.50428771972656,-0.009441330097615719
3893002.731,1496,1496,634013877,220.79,103149333,0.04014984518289566,-0.17135348916053772,119.46683502197266,-0.016846293583512306
3893102.731,1496,1496,634013877,220.78,103149331,0.004008207470178604,-0.15709781646728516,119.4396743774414,-0.017834171652793884
3893202.731,1496,1496,634013877,220.78,103149331,-0.0055353413335978985,-0.16618667542934418,119.481201171875,-0.011209296062588692
3893302.731,1496,1496,634013877,220.78,103149331,0.013618620112538338,-0.16475972533226013,119.5436019897461,-0.0025917580351233482
3893402.731,1496,1496,634013877,220.78,103149331,0.05026356875896454,-0.1668781042098999,119.56584167480469,0.0007700790301896632
3893502.731,1496,1496,634013878,220.79,103149330,0.06733603775501251,-0.17241176962852478,119.56319427490234,-0.003782459069043398
3893602.731,1496,1496,634013878,220.79,103149330,0.038010697811841965,-0.1653716266155243,119.55279541015625,-0.012043401598930359
3893702.731,1496,1496,634013878,220.79,103149329,0.01239094976335764,-0.15952889621257782,119.52448272705078,-0.016131632030010223
3893802.731,1496,1496,634013878,220.79,103149329,-0.002361804246902466,-0.14809536933898926,119.50897216796875,-0.013827946037054062
3893902.731,1496,1496,634013879,220.78,103149327,0.01310975942760706,-0.15990443527698517,119.51071166992188,-0.007541941944509745
3894002.731,1496,1496,634013879,220.78,103149327,0.034045953303575516,-0.1718301773071289,119.53734588623047,-0.00335955829359591
3894102.731,1496,1496,634013879,220.78,103149326,0.048989467322826385,-0.17425771057605743,119.55130767822266,-0.00303875794634223
3894202.731,1496,1496,634013879,220.78,103149326,0.03990013152360916,-0.17113357782363892,119.55936431884766,-0.005482579581439495
3894302.731,1496,1496,634013879,220.78,103149325,0.03916185349225998,-0.163414865732193,119.55564880371094,-0.00974089466035366
3894402.731,1496,1496,634013879,220.78,103149325,0.021655986085534096,-0.1611807495355606,119.53202056884766,-0.013928592205047607
3894502.731,1496,1496,634013879,220.76,103149324,0.008841458708047867,-0.16687223315238953,119.52677154541016,-0.013854580000042915
3894602.731,1496,1496,634013879,220.76,103149324,0.01088109239935875,-0.15274342894554138,119.55223846435547,-0.008785195648670197
3894702.731,1496,1496,634013880,220.76,103149323,0.02328888326883316,-0.15377366542816162,119.58712768554688,-0.0028619002550840378
3894802.731,1496,1496,634013880,220.76,103149323,0.04651787132024765,-0.16966095566749573,119.59444427490234,-0.00113825558219105
3894902.731,1496,1496,634013880,220.76,103149322,0.049930404871702194,-0.17546969652175903,119.55284118652344,-0.005398655775934458
3895002.731,1496,1496,634013880,220.76,103149322,0.04690627381205559,-0.1655663698911667,119.49658203125,-0.011484336107969284
3895102.731,1496,1496,634013880,220.75,103149321,0.028282633051276207,-0.1576692909002304,119.46401977539062,-0.014174215495586395
3895202.731,1496,1496,634013880,220.75,103149321,0.01104010920971632,-0.14869870245456696,119.48517608642578,-0.011023059487342834
3895302.731,1496,1496,634013881,220.74,103149319,0.016194965690374374,-0.16077649593353271,119.5206298828125,-0.005327263846993446
3895402.731,1496,1496,634013881,220.74,103149319,0.029207175597548485,-0.16450704634189606,119.53252410888672,-0.0029192881193012
3895502.731,1496,1496,634013881,220.73,103149319,0.028452564030885696,-0.1692356914281845,119.54800415039062,-0.003992744255810976
3895602.731,1496,1496,634013881,220.73,103149319,0.03720974922180176,-0.18054702877998352,119.54259490966797,-0.007641172967851162
3895702.731,1496,1496,634013881,220.73,103149317,0.039786454290151596,-0.1611040085554123,119.48983764648438,-0.01110328920185566
3895802.731,1496,1496,634013881,220.73,103149317,0.030490592122077942,-0.14560309052467346,119.44551849365234,-0.011532753705978394
3895902.731,1496,1496,634013882,220.73,103149317,0.027992865070700645,-0.15766827762126923,119.44342041015625,-0.009539133869111538
3896002.731,1496,1496,634013882,220.73,103149317,0.01580863632261753,-0.16496354341506958,119.43901824951172,-0.0070158387534320354
3896102.731,1496,1496,634013882,220.73,103149316,0.018300753086805344,-0.1674865186214447,119.46540832519531,-0.004940661136060953
3896202.731,1496,1496,634013882,220.73,103149316,0.03497864678502083,-0.16040197014808655,119.49128723144531,-0.0043214475736021996
3896302.731,1496,1496,634013882,220.72,103149315,0.04203110188245773,-0.16120776534080505,119.48709106445312,-0.006608013063669205
3896402.731,1496,1496,634013882,220.72,103149315,0.04045037552714348,-0.15964803099632263,119.44243621826172,-0.010518867522478104
3896502.731,1496,1496,634013883,220.71,103149314,0.0355718657374382,-0.16675367951393127,119.4101791381836,-0.013024439103901386
3896602.731,1496,1496,634013883,220.71,103149314,0.019415872171521187,-0.15744353830814362,119.40801239013672,-0.010711685754358768
3896702.731,1496,1496,634013883,220.72,103149313,0.024287225678563118,-0.15701332688331604,119.42211151123047,-0.005740409716963768
3896802.731,1496,1496,634013883,220.72,103149313,0.023662187159061432,-0.16863921284675598,119.45773315429688,-0.003469600109383464
3896902.731,1496,1496,634013883,220.71,103149312,0.03872621804475784,-0.17098212242126465,119.48639678955078,-0.005486466456204653
3897002.731,1496,1496,634013883,220.71,103149312,0.04340357705950737,-0.16230931878089905,119.46199798583984,-0.00929037295281887
3897102.731,1496,1496,634013884,220.7,103149310,0.02495967410504818,-0.1569095402956009,119.42251586914062,-0.011077328585088253
3897202.731,1496,1496,634013884,220.7,103149310,0.019926654174923897,-0.15316316485404968,119.40847778320312,-0.01031186431646347
3897302.731,1496,1496,634013884,220.7,103149309,0.022550607100129128,-0.15587234497070312,119.40077209472656,-0.008148390799760818
3897402.731,1496,1496,634013884,220.7,103149309,0.027499668300151825,-0.16850900650024414,119.39954376220703,-0.006391333416104317
3897502.731,1496,1496,634013885,220.7,103149309,0.035624101758003235,-0.16885142028331757,119.38734436035156,-0.005756423808634281
3897602.731,1496,1496,634013885,220.7,103149309,0.03658637776970863,-0.17196983098983765,119.3912353515625,-0.006103328429162502
3897702.731,1496,1496,634013885,220.7,103149307,0.03395187854766846,-0.15852507948875427,119.38067626953125,-0.0073132822290062904
3897802.731,1496,1496,634013885,220.7,103149307,0.030645890161395073,-0.16518115997314453,119.3520736694336,-0.009068142622709274
3897902.731,1496,1496,634013886,220.69,103149306,0.025672301650047302,-0.1571425497531891,119.34864044189453,-0.009757610969245434
3898002.731,1496,1496,634013886,220.69,103149306,0.0182917769998312,-0.15827208757400513,119.34013366699219,-0.009022093378007412
3898102.731,1496,1496,634013886,220.69,103149305,0.020542357116937637,-0.16539254784584045,119.33963012695312,-0.006462969351559877
3898202.731,1496,1496,634013886,220.69,103149305,0.03563249856233597,-0.15735286474227905,119.33515930175781,-0.004265233408659697
3898302.731,1496,1496,634013886,220.69,103149304,0.039204031229019165,-0.16556744277477264,119.31719970703125,-0.004831729456782341
3898402.731,1496,1496,634013886,220.69,103149304,0.039981529116630554,-0.1683254987001419,119.2794418334961,-0.007771116215735674
3898502.731,1496,1496,634013887,220.68,103149302,0.025188425555825233,-0.15915293991565704,119.24951934814453,-0.009877711534500122
3898602.731,1496,1496,634013887,220.68,103149302,0.0216685738414526,-0.14793935418128967,119.22660064697266,-0.008765093050897121
3898702.731,1496,1496,634013888,220.68,103149301,0.025034572929143906,-0.16587723791599274,119.19406127929688,-0.006921595893800259
3898802.731,1496,1496,634013888,220.68,103149301,0.035145629197359085,-0.17510618269443512,119.18925476074219,-0.00548434117808938
3898902.731,1496,1496,634013889,220.68,103149300,0.03583948314189911,-0.16272947192192078,119.18663024902344,-0.0052778818644583225
3899002.731,1496,1496,634013889,220.68,103149300,0.02989836409687996,-0.16355732083320618,119.17974853515625,-0.005797960329800844
3899102.731,1496,1496,634013889,220.67,103149299,0.03987744823098183,-0.16044890880584717,119.15670013427734,-0.006980370730161667
3899202.731,1496,1496,634013889,220.67,103149299,0.03416752070188522,-0.14848020672798157,119.12606048583984,-0.008114847354590893
3899302.731,1496,1496,634013889,220.65,103149297,0.03287488594651222,-0.15963111817836761,119.08866119384766,-0.00823960080742836
3899402.731,1496,1496,634013889,220.65,103149297,0.02434527687728405,-0.16704818606376648,119.08294677734375,-0.007807792164385319
3899502.731,1496,1496,634013890,220.65,103149296,0.019475148990750313,-0.16756659746170044,119.10333251953125,-0.0063282884657382965
3899602.731,1496,1496,634013890,220.65,103149296,0.030816303566098213,-0.1617848128080368,119.10751342773438,-0.004649859853088856
3899702.731,1496,1496,634013891,220.65,103149294,0.029132604598999023,-0.159100741147995,119.0977554321289,-0.004262168426066637
3899802.731,1496,1496,634013891,220.65,103149294,0.043988704681396484,-0.1649010181427002,119.07295227050781,-0.007025659549981356
3899902.731,1496,1496,634013892,220.64,103149293,0.032445333898067474,-0.1642584353685379,119.03472900390625,-0.00937969796359539
3900002.731,1496,1496,634013892,220.64,103149293,0.022646378725767136,-0.16405504941940308,119.014892578125,-0.009248916059732437
3900102.731,1496,1496,634013891,220.64,103149292,0.024615999311208725,-0.15833193063735962,119.01492309570312,-0.006102978251874447
3900202.731,1496,1496,634013891,220.64,103149292,0.03382696211338043,-0.16934064030647278,119.0019302368164,-0.0042386362329125404
3900302.731,1496,1496,634013892,220.65,103149290,0.041821323335170746,-0.16650107502937317,118.97205352783203,-0.00495357159525156
3900402.731,1496,1496,634013892,220.65,103149290,0.03267798572778702,-0.16288268566131592,118.9644546508789,-0.0068664951249957085
3900502.731,1496,1496,634013893,220.64,103149289,0.026685651391744614,-0.1518709659576416,118.92683410644531,-0.007742505520582199
3900602.731,1496,1496,634013893,220.64,103149289,0.03516565263271332,-0.1485205441713333,118.87454223632812,-0.007794564124196768
3900702.731,1496,1496,634013893,220.63,103149288,0.031108127906918526,-0.16215607523918152,118.8631820678711,-0.007670704275369644
3900802.731,1496,1496,634013893,220.63,103149288,0.027201518416404724,-0.16053269803524017,118.84075164794922,-0.0070769526064395905
3900902.731,1496,1496,634013894,220.64,103149287,0.03187759220600128,-0.1705653965473175,118.80548858642578,-0.006199043244123459
3901002.731,1496,1496,634013894,220.64,103149287,0.03333248198032379,-0.16163748502731323,118.78984832763672,-0.0054231807589530945
3901102.731,1496,1496,634013895,220.63,103149284,0.03999640792608261,-0.1519174426794052,118.77171325683594,-0.005211966577917337
3901202.731,1496,1496,634013895,220.63,103149284,0.03603598102927208,-0.164485365152359,118.74720001220703,-0.007138621993362904
3901302.731,1496,1496,634013895,220.63,103149284,0.03378306329250336,-0.15823909640312195,118.7438735961914,-0.008559253066778183
3901402.731,1496,1496,634013895,220.63,103149284,0.024434298276901245,-0.157395139336586,118.7426986694336,-0.008271349593997002
3901502.731,1496,1496,634013895,220.63,103149282,0.023923011496663094,-0.15428273379802704,118.73889923095703,-0.006546284072101116
3901602.731,1496,1496,634013895,220.63,103149282,0.0338057316839695,-0.16560882329940796,118.72267150878906,-0.0043498314917087555
3901702.731,1496,1496,634013896,220.63,103149281,0.04566266015172005,-0.16617150604724884,118.70217895507812,-0.004836998879909515
3901802.731,1496,1496,634013896,220.63,103149281,0.03732439875602722,-0.16063573956489563,118.65267181396484,-0.006795558147132397
3901902.731,1496,1496,634013896,220.63,103149280,0.0349452942609787,-0.16866610944271088,118.58595275878906,-0.008409437723457813
3902002.731,1496,1496,634013896,220.63,103149280,0.024144262075424194,-0.16098296642303467,118.54317474365234,-0.008096722885966301
3902102.731,1496,1496,634013897,220.62,103149278,0.02712780237197876,-0.1615719348192215,118.5329818725586,-0.006589743308722973
3902202.731,1496,1496,634013897,220.62,103149278,0.029715608805418015,-0.15676218271255493,118.50372314453125,-0.0054720607586205006
3902302.731,1496,1496,634013898,220.62,103149277,0.0283270925283432,-0.16572733223438263,118.49131774902344,-0.005859718192368746
3902402.731,1496,1496,634013898,220.62,103149277,0.03621293604373932,-0.15984699130058289,118.5193099975586,-0.00598048884421587
3902502.731,1496,1496,634013898,220.61,103149276,0.03476599231362343,-0.15048307180404663,118.53303527832031,-0.005953123793005943
3902602.731,1496,1496,634013898,220.61,103149276,0.03514328598976135,-0.15650278329849243,118.502685546875,-0.00634628813713789
3902702.731,1496,1496,634013898,220.6,103149274,0.0359078124165535,-0.16052454710006714,118.44017028808594,-0.007799450308084488
3902802.731,1496,1496,634013898,220.6,103149274,0.02471706084907055,-0.16713199019432068,118.3882064819336,-0.007843154482543468
3902902.731,1496,1496,634013899,220.58,103149273,0.0234990157186985,-0.16602779924869537,118.35334777832031,-0.007078832481056452
3903002.731,1496,1496,634013899,220.58,103149273,0.024653058499097824,-0.15974721312522888,118.3398208618164,-0.005536537617444992
3903102.731,1496,1496,634013898,220.57,103149272,0.03541946038603783,-0.16227036714553833,118.33012390136719,-0.004883680958300829
3903202.731,1496,1496,634013898,220.57,103149272,0.041420042514801025,-0.16538773477077484,118.3072738647461,-0.005572313442826271
3903302.731,1496,1496,634013898,220.54,103149271,0.03557755425572395,-0.1673218458890915,118.26094818115234,-0.007880467921495438
3903402.731,1496,1496,634013898,220.54,103149271,0.028023172169923782,-0.1582537591457367,118.219970703125,-0.008473137393593788
3903502.731,1496,1496,634013898,220.51,103149270,0.02192411758005619,-0.15777616202831268,118.20996856689453,-0.006982109975069761
3903602.731,1496,1496,634013898,220.51,103149270,0.026642512530088425,-0.1655697226524353,118.18966674804688,-0.005061896052211523
3903702.731,1496,1496,634013898,220.5,103149269,0.03689686208963394,-0.17174112796783447,118.16039276123047,-0.005760619882494211
3903802.731,1496,1496,634013898,220.5,103149269,0.036954306066036224,-0.16082483530044556,118.1353530883789,-0.006459577940404415
3903902.731,1496,1496,634013898,220.5,103149268,0.03148088604211807,-0.15368758141994476,118.11564636230469,-0.00708738761022687
3904002.731,1496,1496,634013898,220.5,103149268,0.031050466001033783,-0.15722911059856415,118.08917236328125,-0.006701535079628229
3904102.731,1496,1496,634013899,220.5,103149267,0.029935766011476517,-0.1687784492969513,118.0423812866211,-0.006946678273379803
3904202.731,1496,1496,634013899,220.5,103149267,0.024127531796693802,-0.17186978459358215,118.00650787353516,-0.007658195216208696
3904302.731,1496,1496,634013900,220.5,103149265,0.01876957155764103,-0.16710221767425537,117.99182891845703,-0.007094159722328186
3904402.731,1496,1496,634013900,220.5,103149265,0.029696103185415268,-0.15606537461280823,117.99040222167969,-0.005200799088925123
3904502.731,1496,1496,634013900,220.5,103149264,0.039639778435230255,-0.15045177936553955,117.96796417236328,-0.005112397018820047
3904602.731,1496,1496,634013900,220.5,103149264,0.04661279916763306,-0.1531049758195877,117.91973876953125,-0.006723329424858093
3904702.731,1496,1496,634013901,220.5,103149262,0.03057079203426838,-0.16564522683620453,117.88548278808594,-0.008575900457799435
3904802.731,1496,1496,634013901,220.5,103149262,0.020843880251049995,-0.17191922664642334,117.85184478759766,-0.007985401898622513
3904902.731,1496,1496,634013901,220.51,103149261,0.020284216850996017,-0.16658490896224976,117.82843017578125,-0.006521492265164852
3905002.731,1496,1496,634013901,220.51,103149261,0.033901602029800415,-0.1586402952671051,117.82266998291016,-0.005557626951485872
3905102.731,1496,1496,634013901,220.5,103149260,0.03997352719306946,-0.15933378040790558,117.81510162353516,-0.005612028297036886
3905202.731,1496,1496,634013901,220.5,103149260,0.03229920566082001,-0.1639215499162674,117.7801284790039,-0.00706085842102766
3905302.731,1496,1496,634013902,220.5,103149258,0.026364995166659355,-0.16047443449497223,117.74022674560547,-0.008030871860682964
3905402.731,1496,1496,634013902,220.5,103149258,0.020803794264793396,-0.1566799432039261,117.71748352050781,-0.006932435557246208
3905502.731,1496,1496,634013902,220.49,103149258,0.03636755421757698,-0.16203628480434418,117.69352722167969,-0.006613020785152912
3905602.731,1496,1496,634013902,220.49,103149258,0.03327584266662598,-0.16324067115783691,117.6580581665039,-0.007017424330115318
3905702.731,1496,1496,634013902,220.48,103149257,0.03410901874303818,-0.16451095044612885,117.61984252929688,-0.006956262979656458
3905802.731,1496,1496,634013902,220.48,103149257,0.024317888543009758,-0.16270887851715088,117.60315704345703,-0.006413985043764114
3905902.731,1496,1496,634013903,220.47,103149255,0.03303886950016022,-0.15555870532989502,117.57197570800781,-0.005830033682286739
3906002.731,1496,1496,634013903,220.47,103149255,0.035572417080402374,-0.1618594527244568,117.5223617553711,-0.00675309170037508
3906102.731,1496,1496,634013903,220.46,103149254,0.034148331731557846,-0.16577506065368652,117.48175811767578,-0.00782688893377781
3906202.731,1496,1496,634013903,220.46,103149254,0.022756807506084442,-0.16415897011756897,117.44235229492188,-0.007835575379431248
3906302.731,1496,1496,634013903,220.46,103149253,0.03255375474691391,-0.16776446998119354,117.42471313476562,-0.006286701187491417
3906402.731,1496,1496,634013903,220.46,103149253,0.036779846996068954,-0.16034924983978271,117.40225982666016,-0.005203003063797951
3906502.731,1496,1496,634013904,220.46,103149251,0.03623521327972412,-0.16249269247055054,117.37022399902344,-0.005928137805312872
3906602.731,1496,1496,634013904,220.46,103149251,0.03456488251686096,-0.16520553827285767,117.33094787597656,-0.006940138526260853
3906702.731,1496,1496,634013904,220.46,103149250,0.020056873559951782,-0.15959808230400085,117.29859924316406,-0.007500780746340752
3906802.731,1496,1496,634013904,220.46,103149250,0.026637105271220207,-0.1559228152036667,117.26589965820312,-0.007489407900720835
3906902.731,1496,1496,634013905,220.45,103149248,0.0332488939166069,-0.15570777654647827,117.22726440429688,-0.00675194850191474
3907002.731,1496,1496,634013905,220.45,103149248,0.03504713624715805,-0.15873199701309204,117.18863677978516,-0.00591301079839468
3907102.731,1496,1496,634013905,220.46,103149248,0.03652595728635788,-0.16666167974472046,117.15174102783203,-0.0065486254170536995
3907202.731,1496,1496,634013905,220.46,103149248,0.02366173081099987,-0.17583048343658447,117.12683868408203,-0.00647312356159091
3907302.731,1496,1496,634013905,220.45,103149245,0.032222386449575424,-0.16518628597259521,117.09402465820312,-0.006012138910591602
3907402.731,1496,1496,634013905,220.45,103149245,0.03838428854942322,-0.16025474667549133,117.06175994873047,-0.005674113519489765
3907502.731,1496,1496,634013906,220.44,103149244,0.038163382560014725,-0.1623481959104538,117.03646087646484,-0.006868711207062006
3907602.731,1496,1496,634013906,220.44,103149244,0.026204096153378487,-0.16049852967262268,117.00936889648438,-0.007928244769573212
3907702.731,1496,1496,634013906,220.44,103149242,0.019713617861270905,-0.1690008044242859,116.97879791259766,-0.0069681317545473576
3907802.731,1496,1496,634013906,220.44,103149242,0.026944532990455627,-0.16334939002990723,116.95968627929688,-0.0057708886452019215
3907902.731,1496,1496,634013906,220.44,103149241,0.03307405114173889,-0.16885673999786377,116.94644165039062,-0.005087393801659346
3908002.731,1496,1496,634013906,220.44,103149241,0.03703436255455017,-0.16312211751937866,116.91646575927734,-0.005885309539735317
3908102.731,1496,1496,634013907,220.42,103149239,0.03298491984605789,-0.16079217195510864,116.89308166503906,-0.007275735959410667
3908202.731,1496,1496,634013907,220.42,103149239,0.02956344746053219,-0.15905284881591797,116.8848876953125,-0.007302228361368179
3908302.731,1496,1496,634013907,220.41,103149238,0.02411627396941185,-0.16119948029518127,116.87606048583984,-0.006265649572014809
3908402.731,1496,1496,634013907,220.41,103149238,0.027333775535225868,-0.16126857697963715,116.8484115600586,-0.005552469287067652
3908502.731,1496,1496,634013907,220.42,103149238,0.03448064625263214,-0.1696082055568695,116.80367279052734,-0.005496067460626364
3908602.731,1496,1496,634013907,220.42,103149238,0.0389571450650692,-0.16662654280662537,116.74535369873047,-0.005721771623939276
3908702.731,1496,1496,634013908,220.41,103149236,0.03400237858295441,-0.15329255163669586,116.67847442626953,-0.006308824755251408
3908802.731,1496,1496,634013908,220.41,103149236,0.032123878598213196,-0.15588772296905518,116.66533660888672,-0.006829652935266495
3908902.731,1496,1496,634013908,220.41,103149234,0.03369446098804474,-0.16512393951416016,116.6813735961914,-0.006832405459135771
3909002.731,1496,1496,634013908,220.41,103149234,0.028369393199682236,-0.17357416450977325,116.67306518554688,-0.006688602268695831
3909102.731,1496,1496,634013909,220.41,103149232,0.03232554346323013,-0.17011375725269318,116.66970825195312,-0.006776380818337202
3909202.731,1496,1496,634013909,220.41,103149232,0.02619999274611473,-0.159262016415596,116.67425537109375,-0.006169648841023445
3909302.731,1496,1496,634013909,220.4,103149231,0.03137136250734329,-0.15623825788497925,116.66383361816406,-0.005068480037152767
3909402.731,1496,1496,634013909,220.4,103149231,0.03337413817644119,-0.15858173370361328,116.62179565429688,-0.006349796894937754
3909502.731,1496,1496,634013909,220.4,103149229,0.028039230033755302,-0.16925674676895142,116.5684814453125,-0.007464327849447727
3909602.731,1496,1496,634013909,220.4,103149229,0.027038848027586937,-0.16588765382766724,116.54386901855469,-0.007572161965072155
3909702.731,1496,1496,634013910,220.39,103149228,0.03836089372634888,-0.16692492365837097,116.55135345458984,-0.006764869671314955
3909802.731,1496,1496,634013910,220.39,103149228,0.03531632572412491,-0.16078229248523712,116.54570770263672,-0.005814453586935997
3909902.731,1496,1496,634013911,220.39,103149226,0.036992281675338745,-0.1545914262533188,116.54744720458984,-0.0056434329599142075
3910002.731,1496,1496,634013911,220.39,103149226,0.03733869269490242,-0.16159769892692566,116.57542419433594,-0.006519726477563381
3910102.731,1496,1496,634013911,220.38,103149225,0.027345336973667145,-0.16654783487319946,116.59773254394531,-0.006972749251872301
3910202.731,1496,1496,634013911,220.38,103149225,0.026979058980941772,-0.17021138966083527,116.57225036621094,-0.007303076330572367
3910302.731,1496,1496,634013912,220.37,103149224,0.03221554309129715,-0.16455499827861786,116.53736114501953,-0.00694866431877017
3910402.731,1496,1496,634013912,220.37,103149224,0.029863152652978897,-0.1616288423538208,116.51252746582031,-0.0068555474281311035
3910502.731,1496,1496,634013912,220.37,103149222,0.028572455048561096,-0.15933692455291748,116.47006225585938,-0.006370273884385824
3910602.731,1496,1496,634013912,220.37,103149222,0.02531765028834343,-0.1652078628540039,116.42122650146484,-0.006601161323487759
3910702.731,1496,1496,634013913,220.36,103149221,0.025231044739484787,-0.15892820060253143,116.41384887695312,-0.006676810327917337
3910802.731,1496,1496,634013913,220.36,103149221,0.03332086279988289,-0.16086971759796143,116.39539337158203,-0.006889780517667532
3910902.731,1496,1496,634013913,220.37,103149219,0.0402032695710659,-0.17028747498989105,116.3840103149414,-0.007124489173293114
3911002.731,1496,1496,634013913,220.37,103149219,0.03371419757604599,-0.1643359363079071,116.367431640625,-0.007915345951914787
3911102.731,1496,1496,634013914,220.36,103149218,0.027325039729475975,-0.16819331049919128,116.33470153808594,-0.007823877967894077
3911202.731,1496,1496,634013914,220.36,103149218,0.03151284158229828,-0.15989822149276733,116.29447174072266,-0.006532944738864899
3911302.731,1496,1496,634013914,220.35,103149216,0.027071721851825714,-0.16222062706947327,116.27399444580078,-0.006136334966868162
3911402.731,1496,1496,634013914,220.35,103149216,0.027996346354484558,-0.16504710912704468,116.22599029541016,-0.006416686810553074
3911502.731,1496,1496,634013915,220.35,103149216,0.028893597424030304,-0.16951891779899597,116.16590881347656,-0.0070066554471850395
3911602.731,1496,1496,634013915,220.35,103149216,0.03809870779514313,-0.16374945640563965,116.11737823486328,-0.007207136135548353
3911702.731,1496,1496,634013915,220.35,103149215,0.030467379838228226,-0.15251871943473816,116.09222412109375,-0.008015832863748074
3911802.731,1496,1496,634013915,220.35,103149215,0.033683061599731445,-0.15827195346355438,116.08769226074219,-0.007796981371939182
3911902.731,1496,1496,634013916,220.35,103149212,0.024738725274801254,-0.16699472069740295,116.06952667236328,-0.0074027907103300095
3912002.731,1496,1496,634013916,220.35,103149212,0.02523169480264187,-0.16666704416275024,116.05068969726562,-0.00705468375235796
3912102.731,1496,1496,634013916,220.35,103149211,0.03509511798620224,-0.1600000411272049,116.02225494384766,-0.006914292462170124
3912202.731,1496,1496,634013916,220.35,103149211,0.03378508239984512,-0.15888889133930206,115.96546936035156,-0.007394843269139528
3912302.731,1496,1496,634013916,220.34,103149210,0.03791111707687378,-0.16554132103919983,115.90702056884766,-0.007920369505882263
3912402.731,1496,1496,634013916,220.34,103149210,0.02915239706635475,-0.16886796057224274,115.8545913696289,-0.008079067803919315
3912502.731,1496,1496,634013916,220.32,103149208,0.03177960216999054,-0.17154833674430847,115.81719207763672,-0.007890885695815086
3912602.731,1496,1496,634013916,220.32,103149208,0.021018747240304947,-0.15960845351219177,115.7878189086914,-0.007331172004342079
3912702.731,1496,1496,634013917,220.34,103149207,0.026059739291667938,-0.1577039510011673,115.77798461914062,-0.006457071751356125
3912802.731,1496,1496,634013917,220.34,103149207,0.029936036095023155,-0.1564350128173828,115.74995422363281,-0.006294661201536655
3912902.731,1496,1496,634013918,220.34,103149205,0.03487994149327278,-0.16527031362056732,115.71345520019531,-0.007923237979412079
3913002.731,1496,1496,634013918,220.34,103149205,0.03348042070865631,-0.16574916243553162,115.67457580566406,-0.009047972969710827
3913102.731,1496,1496,634013918,220.33,103149204,0.023291029036045074,-0.15641963481903076,115.64990234375,-0.008452016860246658
3913202.731,1496,1496,634013918,220.33,103149204,0.02580314874649048,-0.16140301525592804,115.623291015625,-0.007645223289728165
3913302.731,1496,1496,634013919,220.33,103149202,0.020444711670279503,-0.1630370020866394,115.58485412597656,-0.006887704599648714
3913402.731,1496,1496,634013919,220.33,103149202,0.028380565345287323,-0.1618863344192505,115.5562744140625,-0.006817965768277645
3913502.731,1496,1496,634013919,220.32,103149200,0.03051123581826687,-0.1728781759738922,115.52226257324219,-0.007013331167399883
3913602.731,1496,1496,634013919,220.32,103149200,0.03901474550366402,-0.1593572497367859,115.47579956054688,-0.007917962037026882
3913702.731,1496,1496,634013919,220.32,103149199,0.03440064191818237,-0.15775799751281738,115.45759582519531,-0.008569527417421341
3913802.731,1496,1496,634013919,220.32,103149199,0.029145486652851105,-0.1571839600801468,115.43658447265625,-0.00866654235869646
3913902.731,1496,1496,634013919,220.32,103149197,0.022943366318941116,-0.16438952088356018,115.42369079589844,-0.00832291878759861
3914002.731,1496,1496,634013919,220.32,103149197,0.022029561921954155,-0.1673274040222168,115.41659545898438,-0.007391189690679312
3914102.731,1496,1496,634013920,220.31,103149196,0.031224319711327553,-0.1678410917520523,115.39046478271484,-0.006475203204900026
3914202.731,1496,1496,634013920,220.31,103149196,0.03418508917093277,-0.16266286373138428,115.35975646972656,-0.007113417610526085
3914302.731,1496,1496,634013920,220.31,103149195,0.042921192944049835,-0.16408979892730713,115.32894134521484,-0.008547884412109852
3914402.731,1496,1496,634013920,220.31,103149195,0.03322719782590866,-0.16162919998168945,115.28899383544922,-0.009560471400618553
3914502.731,1496,1496,634013920,220.31,103149194,0.019649196416139603,-0.15639270842075348,115.2398910522461,-0.009439360350370407
3914602.731,1496,1496,634013920,220.31,103149194,0.02091868780553341,-0.16807951033115387,115.20714569091797,-0.0075769261457026005
3914702.731,1496,1496,634013921,220.3,103149192,0.030836742371320724,-0.15859058499336243,115.21326446533203,-0.006234262138605118
3914802.731,1496,1496,634013921,220.3,103149192,0.041791293770074844,-0.16644641757011414,115.20903015136719,-0.006634414661675692
3914902.731,1496,1496,634013921,220.3,103149191,0.03151152282953262,-0.17045184969902039,115.18793487548828,-0.008045029826462269
3915002.731,1496,1496,634013921,220.3,103149191,0.03846175596117973,-0.15608841180801392,115.15599822998047,-0.009243063628673553
3915102.731,1496,1496,634013921,220.29,103149189,0.030372004956007004,-0.1575869917869568,115.11163330078125,-0.009256301447749138
3915202.731,1496,1496,634013921,220.29,103149189,0.024881523102521896,-0.15860486030578613,115.01663970947266,-0.008597301319241524
3915302.731,1496,1496,634013922,220.28,103149189,0.02493061125278473,-0.16425733268260956,114.88333892822266,-0.007230128161609173
3915402.731,1496,1496,634013922,220.28,103149189,0.03242015838623047,-0.1656770259141922,114.75143432617188,-0.006559438072144985
3915502.731,1496,1496,634013922,220.29,103149187,0.03381682187318802,-0.16344547271728516,114.65179443359375,-0.0070549785159528255
3915602.731,1496,1496,634013922,220.29,103149187,0.037609342485666275,-0.16153910756111145,114.56407928466797,-0.008700676262378693
3915702.731,1496,1496,634013922,220.28,103149186,0.02622610703110695,-0.1646527647972107,114.4948501586914,-0.00970674492418766
3915802.731,1496,1496,634013922,220.28,103149186,0.029141755774617195,-0.16642844676971436,114.42747497558594,-0.00937561970204115
3915902.731,1496,1496,634013922,220.28,103149186,0.016664374619722366,-0.16794539988040924,114.3642349243164,-0.008344974368810654
3916002.731,1496,1496,634013922,220.28,103149186,0.02646852284669876,-0.1561986804008484,114.3199234008789,-0.00747592793777585
3916102.731,1496,1496,634013923,220.28,103149184,0.03475888818502426,-0.16160720586776733,114.28150939941406,-0.006897761952131987
3916202.731,1496,1496,634013923,220.28,103149184,0.040979914367198944,-0.16193220019340515,114.20989227294922,-0.007782393600791693
3916302.731,1496,1496,634013923,220.27,103149183,0.03799111396074295,-0.1671515703201294,114.08617401123047,-0.009211724624037743
3916402.731,1496,1496,634013923,220.27,103149183,0.02886330336332321,-0.17369666695594788,113.96099090576172,-0.00949767604470253
3916502.731,1496,1496,634013924,220.28,103149181,0.02915515936911106,-0.1609790176153183,113.84900665283203,-0.008652285672724247
3916602.731,1496,1496,634013924,220.28,103149181,0.031251270323991776,-0.15170946717262268,113.79866027832031,-0.006838301196694374
3916702.731,1496,1496,634013924,220.28,103149181,0.039543166756629944,-0.1580001711845398,113.78661346435547,-0.006869975943118334
3916802.731,1496,1496,634013924,220.28,103149181,0.03461780399084091,-0.16543075442314148,113.7764892578125,-0.007580477744340897
3916902.731,1496,1496,634013924,220.3,103149180,0.03267935663461685,-0.15665699541568756,113.76239013671875,-0.008618010208010674
3917002.731,1496,1496,634013924,220.3,103149180,0.03304915130138397,-0.1598200798034668,113.73145294189453,-0.009375649504363537
3917102.731,1496,1496,634013925,220.3,103149178,0.02197505161166191,-0.16382381319999695,113.65726470947266,-0.009010525420308113
3917202.731,1496,1496,634013925,220.3,103149178,0.02412068471312523,-0.1705278754234314,113.56550598144531,-0.008375393226742744
3917302.731,1496,1496,634013925,220.3,103149176,0.02593790739774704,-0.16341465711593628,113.51239013671875,-0.00701571349054575
3917402.731,1496,1496,634013925,220.3,103149176,0.03655121847987175,-0.1685696542263031,113.46514892578125,-0.007452550809830427
3917502.731,1496,1496,634013926,220.3,103149175,0.03275877982378006,-0.1589621603488922,113.40872955322266,-0.008562124334275723
3917602.731,1496,1496,634013926,220.3,103149175,0.027615107595920563,-0.16157108545303345,113.3597412109375,-0.008604547008872032
3917702.731,1496,1496,634013925,220.3,103149174,0.031013401225209236,-0.1650870144367218,113.3154067993164,-0.008922940120100975
3917802.731,1496,1496,634013925,220.3,103149174,0.025656990706920624,-0.16652077436447144,113.2627944946289,-0.008944468572735786
3917902.731,1496,1496,634013925,220.3,103149172,0.02761313132941723,-0.15873870253562927,113.22461700439453,-0.008517704904079437
3918002.731,1496,1496,634013925,220.3,103149172,0.03320259973406792,-0.15742343664169312,113.20405578613281,-0.007369523867964745
3918102.731,1496,1496,634013925,220.29,103149171,0.03680256009101868,-0.16215668618679047,113.16557312011719,-0.007190742529928684
3918202.731,1496,1496,634013925,220.29,103149171,0.038640815764665604,-0.1621634066104889,113.1163558959961,-0.00867393333464861
3918302.731,1496,1496,634013925,220.29,103149169,0.029443200677633286,-0.16506807506084442,113.06625366210938,-0.009807376191020012
3918402.731,1496,1496,634013925,220.29,103149169,0.0284408051520586,-0.1644178330898285,113.00263977050781,-0.009796439670026302
3918502.731,1496,1496,634013925,220.29,103149168,0.02622247114777565,-0.15807276964187622,112.94950103759766,-0.00849120318889618
3918602.731,1496,1496,634013925,220.29,103149168,0.02480434812605381,-0.161580890417099,112.92517852783203,-0.007431593723595142
3918702.731,1496,1496,634013926,220.28,103149167,0.033054303377866745,-0.16985416412353516,112.9231185913086,-0.007056489586830139
3918802.731,1496,1496,634013926,220.28,103149167,0.037123341113328934,-0.16829004883766174,112.93396759033203,-0.008065583184361458
3918902.731,1496,1496,634013925,220.28,103149166,0.03701784089207649,-0.1568969041109085,112.91474914550781,-0.009441704489290714
3919002.731,1496,1496,634013925,220.28,103149166,0.036188043653964996,-0.15053561329841614,112.88739013671875,-0.00993269868195057
3919102.731,1496,1496,634013925,220.28,103149165,0.019003452733159065,-0.1608615517616272,112.8816146850586,-0.009394649416208267
3919202.731,1496,1496,634013925,220.28,103149165,0.028012456372380257,-0.1691264510154724,112.83329010009766,-0.008415481075644493
3919302.731,1496,1496,634013925,220.27,103149163,0.028290465474128723,-0.1701890230178833,112.77481842041016,-0.00791147816926241
3919402.731,1496,1496,634013925,220.27,103149163,0.034211356192827225,-0.15781889855861664,112.72242736816406,-0.007833834737539291
3919502.731,1496,1496,634013925,220.27,103149163,0.038751423358917236,-0.15182587504386902,112.66019439697266,-0.008894642814993858
3919602.731,1496,1496,634013925,220.27,103149163,0.034627579152584076,-0.1560618132352829,112.60997009277344,-0.009061340242624283
3919702.731,1496,1496,634013925,220.29,103149163,0.027973853051662445,-0.16115503013134003,112.57576751708984,-0.009855680167675018
3919802.731,1496,1496,634013925,220.29,103149163,0.025153346359729767,-0.16111385822296143,112.5301284790039,-0.009829413145780563
3919902.731,1496,1496,634013925,220.3,103149162,0.021922437474131584,-0.1657801866531372,112.50363159179688,-0.008248178288340569
3920002.731,1496,1496,634013925,220.3,103149162,0.03466656431555748,-0.16347342729568481,112.4809799194336,-0.0073198662139475346
3920102.731,1496,1496,634013926,220.31,103149161,0.04058147966861725,-0.16379103064537048,112.4235610961914,-0.008217901922762394
3920202.731,1496,1496,634013926,220.31,103149161,0.03961944580078125,-0.1675107777118683,112.34774017333984,-0.009285883978009224
3920302.731,1496,1496,634013926,220.32,103149161,0.03080691397190094,-0.16311463713645935,112.26673889160156,-0.010513823479413986
3920402.731,1496,1496,634013926,220.32,103149161,0.022316306829452515,-0.16613861918449402,112.19367218017578,-0.010026879608631134
3920502.731,1496,1496,634013926,220.33,103149160,0.025160914286971092,-0.1669609248638153,112.09236145019531,-0.008694120682775974
3920602.731,1496,1496,634013926,220.33,103149160,0.029831603169441223,-0.16984111070632935,112.02361297607422,-0.007820295169949532
3920702.731,1496,1496,634013926,220.34,103149160,0.032967835664749146,-0.16373732686042786,112.00113677978516,-0.008100656792521477
3920802.731,1496,1496,634013926,220.34,103149160,0.031034164130687714,-0.1658555418252945,111.95189666748047,-0.00924481451511383
3920902.731,1496,1496,634013927,220.35,103149160,0.03174341097474098,-0.15957166254520416,111.8900146484375,-0.009770571254193783
3921002.731,1496,1496,634013927,220.35,103149160,0.02764633484184742,-0.15735642611980438,111.8608627319336,-0.009913689456880093
3921102.731,1496,1496,634013927,220.36,103149159,0.028667794540524483,-0.16305667161941528,111.82913208007812,-0.009450225159525871
3921202.731,1496,1496,634013927,220.36,103149159,0.04030986875295639,-0.16583579778671265,111.78898620605469,-0.008821598254144192
3921302.731,1496,1496,634013927,220.36,103149158,0.03189825266599655,-0.16668745875358582,111.72672271728516,-0.008685868233442307
3921402.731,1496,1496,634013927,220.36,103149158,0.02860122360289097,-0.16268862783908844,111.6568374633789,-0.009161783382296562
3921502.731,1496,1496,634013927,220.37,103149158,0.03130371868610382,-0.1613505482673645,111.60366821289062,-0.009128367528319359
3921602.731,1496,1496,634013927,220.37,103149158,0.030316591262817383,-0.16662055253982544,111.56389617919922,-0.009766138158738613
3921702.731,1496,1496,634013927,220.36,103149157,0.027415387332439423,-0.16213937103748322,111.55335235595703,-0.010029945522546768
3921802.731,1496,1496,634013927,220.36,103149157,0.025623496621847153,-0.15951129794120789,111.54023742675781,-0.009319201111793518
3921902.731,1496,1496,634013927,220.36,103149156,0.03410874679684639,-0.1671365350484848,111.51445007324219,-0.008630339987576008
3922002.731,1496,1496,634013927,220.36,103149156,0.0347030945122242,-0.16359637677669525,111.48637390136719,-0.008982687257230282
3922102.731,1496,1496,634013927,220.35,103149156,0.03324352204799652,-0.16112396121025085,111.4356918334961,-0.009384330362081528
3922202.731,1496,1496,634013927,220.35,103149156,0.024561092257499695,-0.16556242108345032,111.35675048828125,-0.009735645726323128
3922302.731,1496,1496,634013927,220.35,103149155,0.020590726286172867,-0.16103768348693848,111.29102325439453,-0.010296603664755821
3922402.731,1496,1496,634013927,220.35,103149155,0.029445596039295197,-0.16062885522842407,111.22086334228516,-0.009863401763141155
3922502.731,1496,1496,634013927,220.34,103149154,0.03676023706793785,-0.1672455370426178,111.13556671142578,-0.009268141351640224