timestamp(ms),RCIN.C1,RCIN.C3,GPS.Lat,GPS.Alt,GPS.Lng,IMU.AccX,IMU.AccY,DCM.Yaw,IMU.GyrZ
4533983.734,1484,1479,634015325,218.25,103152210,0.02633320540189743,-0.19775205850601196,244.59030151367188,-0.04284602403640747
4534083.734,1484,1479,634015324,218.25,103152209,0.03354862704873085,-0.19619250297546387,244.3838653564453,-0.04159732535481453
4534183.734,1484,1479,634015324,218.25,103152209,0.03824610263109207,-0.1723042130470276,244.1885223388672,-0.04039948806166649
4534283.734,1484,1479,634015323,218.25,103152209,0.03925124928355217,-0.1362813264131546,243.98611450195312,-0.03949277102947235
4534383.734,1484,1479,634015323,218.25,103152209,0.03181961923837662,-0.1317591369152069,243.76556396484375,-0.04000639170408249
4534483.734,1484,1479,634015322,218.25,103152209,0.020087450742721558,-0.14419063925743103,243.56100463867188,-0.04118393361568451
4534583.734,1484,1479,634015322,218.25,103152209,0.011041351594030857,-0.16202136874198914,243.37046813964844,-0.041376739740371704
4534683.734,1484,1479,634015321,218.24,103152208,0.013225916773080826,-0.17603176832199097,243.16867065429688,-0.04027901217341423
4534783.734,1484,1479,634015321,218.24,103152208,0.023319128900766373,-0.1850418746471405,242.9564208984375,-0.03911544382572174
4534883.734,1484,1479,634015320,218.24,103152208,0.0406285896897316,-0.1779843121767044,242.769287109375,-0.038192711770534515
4534983.734,1484,1479,634015320,218.24,103152208,0.03464815020561218,-0.1673252284526825,242.60238647460938,-0.03733793646097183
4535083.734,1484,1479,634015319,218.25,103152208,0.03330115228891373,-0.16732054948806763,242.42742919921875,-0.037415582686662674
4535183.734,1484,1479,634015319,218.25,103152208,0.027236467227339745,-0.16965338587760925,242.25338745117188,-0.037704840302467346
4535283.734,1484,1479,634015318,218.25,103152208,0.014679580926895142,-0.1599387228488922,242.07545471191406,-0.03745611757040024
4535383.734,1484,1479,634015318,218.25,103152208,0.02366100251674652,-0.1470380574464798,241.91348266601562,-0.0366220660507679
4535483.734,1484,1479,634015317,218.25,103152208,0.022236481308937073,-0.1440814882516861,241.7764892578125,-0.03543772175908089
4535583.734,1484,1479,634015317,218.25,103152208,0.025746872648596764,-0.1448960155248642,241.62258911132812,-0.03433606028556824
4535683.734,1484,1479,634015316,218.25,103152208,0.029599089175462723,-0.1592375636100769,241.45925903320312,-0.034180648624897
4535783.734,1484,1479,634015316,218.25,103152208,0.02791617065668106,-0.17925696074962616,241.30401611328125,-0.034906938672065735
4535883.734,1484,1479,634015315,218.24,103152208,0.023367000743746758,-0.20655398070812225,241.1307830810547,-0.03608276695013046
4535983.734,1484,1479,634015315,218.24,103152208,0.028662461787462234,-0.19454798102378845,240.96990966796875,-0.035776250064373016
4536083.734,1484,1479,634015314,218.24,103152207,0.033158544450998306,-0.15978001058101654,240.8543701171875,-0.033941593021154404
4536183.734,1484,1479,634015314,218.24,103152207,0.03283112496137619,-0.13239584863185883,240.72471618652344,-0.031111042946577072
4536283.734,1484,1479,634015313,218.22,103152207,0.03282348811626434,-0.12301240861415863,240.60159301757812,-0.029406175017356873
4536383.734,1484,1479,634015313,218.22,103152207,0.021459568291902542,-0.1426122784614563,240.46566772460938,-0.029329707846045494
4536483.734,1484,1479,634015312,218.22,103152207,0.01253957487642765,-0.16953518986701965,240.32977294921875,-0.03052818961441517
4536583.734,1484,1479,634015312,218.22,103152207,0.015560880303382874,-0.18755991756916046,240.17108154296875,-0.03160101920366287
4536683.734,1484,1479,634015311,218.21,103152206,0.03398824855685234,-0.1898600459098816,240.01864624023438,-0.032025858759880066
4536783.734,1484,1479,634015311,218.21,103152206,0.04063217714428902,-0.1715174913406372,239.89434814453125,-0.030967138707637787
4536883.734,1484,1479,634015311,218.21,103152206,0.04678671807050705,-0.15240535140037537,239.78671264648438,-0.028946463018655777
4536983.734,1484,1479,634015311,218.21,103152206,0.0408204086124897,-0.15451282262802124,239.66156005859375,-0.02660619653761387
4537083.734,1484,1479,634015310,218.2,103152206,0.03336735814809799,-0.15865306556224823,239.52969360351562,-0.02565343864262104
4537183.734,1484,1479,634015310,218.2,103152206,0.014706622809171677,-0.15795612335205078,239.4048309326172,-0.026466775685548782
4537283.734,1484,1479,634015309,218.21,103152206,0.0170527845621109,-0.15953810513019562,239.2808837890625,-0.027570903301239014
4537383.734,1484,1479,634015309,218.21,103152206,0.018205711618065834,-0.15727238357067108,239.15792846679688,-0.028222665190696716
4537483.734,1484,1479,634015307,218.18,103152206,0.022329013794660568,-0.17056450247764587,239.05401611328125,-0.026956617832183838
4537583.734,1484,1479,634015307,218.18,103152206,0.02864040620625019,-0.17613744735717773,238.9676513671875,-0.024497292935848236
4537683.734,1484,1479,634015306,218.16,103152206,0.04266050457954407,-0.1693626195192337,238.87095642089844,-0.022210437804460526
4537783.734,1484,1479,634015306,218.16,103152206,0.03943133354187012,-0.16766494512557983,238.78176879882812,-0.02202324941754341
4537883.734,1484,1479,634015304,218.12,103152206,0.03343188017606735,-0.1493302434682846,238.69007873535156,-0.02305620349943638
4537983.734,1484,1479,634015304,218.12,103152206,0.019900301471352577,-0.13836124539375305,238.60159301757812,-0.024641763418912888
4538083.734,1484,1479,634015303,218.11,103152206,0.01413491927087307,-0.15148138999938965,238.49232482910156,-0.0249263197183609
4538183.734,1484,1479,634015303,218.11,103152206,0.017065612599253654,-0.16548091173171997,238.3961181640625,-0.023451441898941994
4538283.734,1484,1479,634015302,218.11,103152206,0.02776530385017395,-0.17831295728683472,238.31588745117188,-0.02121450938284397
4538383.734,1484,1479,634015302,218.11,103152206,0.035485729575157166,-0.17746828496456146,238.23866271972656,-0.019383776932954788
4538483.734,1484,1479,634015300,218.09,103152206,0.039021581411361694,-0.15603375434875488,238.16778564453125,-0.018430031836032867
4538583.734,1484,1479,634015300,218.09,103152206,0.04067900776863098,-0.1552485078573227,238.09042358398438,-0.018752889707684517
4538683.734,1484,1479,634015299,218.07,103152206,0.03959246724843979,-0.15854381024837494,238.01693725585938,-0.019536441192030907
4538783.734,1484,1479,634015299,218.07,103152206,0.02429618313908577,-0.16076374053955078,237.93666076660156,-0.019646188244223595
4538883.734,1484,1479,634015296,218.02,103152206,0.010909834876656532,-0.16707170009613037,237.8731231689453,-0.018838558346033096
4538983.734,1484,1479,634015296,218.02,103152206,0.015508118085563183,-0.17093735933303833,237.81494140625,-0.01779855415225029
4539083.734,1484,1479,634015295,218.02,103152206,0.02095380797982216,-0.1559872031211853,237.73577880859375,-0.01660437136888504
4539183.734,1484,1479,634015295,218.02,103152206,0.03076539933681488,-0.15487971901893616,237.66346740722656,-0.01673024706542492
4539283.734,1484,1479,634015295,218.03,103152206,0.03838565945625305,-0.16075265407562256,237.59963989257812,-0.01742301695048809
4539383.734,1484,1479,634015295,218.03,103152206,0.04904623702168465,-0.16395509243011475,237.54226684570312,-0.01703568361699581
4539483.734,1484,1479,634015296,218.09,103152204,0.024717126041650772,-0.1702500581741333,237.4759521484375,-0.015542639419436455
4539583.734,1484,1479,634015296,218.09,103152204,0.019856903702020645,-0.16907042264938354,237.43406677246094,-0.01415383443236351
4539683.734,1484,1479,634015295,218.09,103152204,0.027802851051092148,-0.16445805132389069,237.41546630859375,-0.013853449374437332
4539783.734,1484,1479,634015295,218.09,103152204,0.029563629999756813,-0.15407297015190125,237.3610076904297,-0.014562029391527176
4539883.734,1484,1479,634015295,218.08,103152203,0.032743100076913834,-0.16100956499576569,237.29052734375,-0.014504145830869675
4539983.734,1484,1479,634015295,218.08,103152203,0.03533340245485306,-0.16326633095741272,237.23922729492188,-0.013443879783153534
4540083.734,1484,1479,634015293,218.09,103152203,0.0274581890553236,-0.16422143578529358,237.2205810546875,-0.011948687955737114
4540183.734,1484,1479,634015293,218.09,103152203,0.02378934621810913,-0.1620987355709076,237.21337890625,-0.011300782673060894
4540283.734,1484,1479,634015293,218.09,103152203,0.02700778841972351,-0.14779633283615112,237.18283081054688,-0.011602891609072685
4540383.734,1484,1479,634015293,218.09,103152203,0.027136066928505898,-0.15502066910266876,237.14979553222656,-0.012277241796255112
4540483.734,1484,1479,634015292,218.1,103152202,0.02708909846842289,-0.17653712630271912,237.1239013671875,-0.012374022044241428
4540583.734,1484,1479,634015292,218.1,103152202,0.03787892684340477,-0.18066421151161194,237.1072998046875,-0.011468185111880302
4540683.734,1484,1479,634015291,218.09,103152203,0.035827409476041794,-0.17747801542282104,237.10391235351562,-0.010863516479730606
4540783.734,1484,1479,634015291,218.09,103152203,0.0385856106877327,-0.148495614528656,237.10211181640625,-0.010086151771247387
4540883.734,1484,1479,634015290,218.08,103152202,0.022559843957424164,-0.12356317788362503,237.0885009765625,-0.009099593386054039
4540983.734,1484,1479,634015290,218.08,103152202,0.016433043405413628,-0.13727977871894836,237.0760498046875,-0.008267863653600216
4541083.734,1484,1479,634015289,218.08,103152203,0.013373873196542263,-0.1692027598619461,237.05419921875,-0.008136611431837082
4541183.734,1484,1479,634015289,218.08,103152203,0.012347785755991936,-0.1920231580734253,237.026123046875,-0.009073015302419662
4541283.734,1484,1479,634015288,218.08,103152202,0.02829928509891033,-0.19040802121162415,237.01760864257812,-0.009144380688667297
4541383.734,1484,1479,634015288,218.08,103152202,0.04170640930533409,-0.16150213778018951,237.02792358398438,-0.007811262737959623
4541483.734,1484,1479,634015288,218.07,103152202,0.04301496222615242,-0.1408286839723587,237.0344696044922,-0.0061490884982049465
4541583.734,1484,1479,634015288,218.07,103152202,0.03924677148461342,-0.14046341180801392,237.03419494628906,-0.005493063945323229
4541683.734,1484,1479,634015287,218.06,103152202,0.033842701464891434,-0.1516074538230896,237.01864624023438,-0.005987456068396568
4541783.734,1484,1479,634015287,218.06,103152202,0.016748595982789993,-0.17031890153884888,237.01333618164062,-0.007057955488562584
4541883.734,1484,1479,634015286,218.06,103152202,0.023063503205776215,-0.17577782273292542,237.01171875,-0.007561343722045422
4541983.734,1484,1479,634015286,218.06,103152202,0.018933597952127457,-0.16148294508457184,236.99478149414062,-0.006538409274071455
4542083.734,1484,1479,634015285,218.06,103152202,0.027709944173693657,-0.16000379621982574,237.0016632080078,-0.004626009147614241
4542183.734,1484,1479,634015285,218.06,103152202,0.03250487521290779,-0.15160803496837616,237.03749084472656,-0.002555527724325657
4542283.734,1484,1479,634015285,218.03,103152199,0.026763657107949257,-0.1570977419614792,237.04672241210938,-0.002290600910782814
4542383.734,1484,1479,634015285,218.03,103152199,0.026780083775520325,-0.1761445850133896,237.04714965820312,-0.003072153776884079
4542483.734,1484,1479,634015283,218,103152198,0.031723327934741974,-0.16475948691368103,237.02862548828125,-0.00406663678586483
4542583.734,1484,1479,634015283,218,103152198,0.03393710404634476,-0.15553897619247437,237.046630859375,-0.004912341479212046
4542683.734,1484,1479,634015282,217.97,103152194,0.026314565911889076,-0.1480812132358551,237.0618438720703,-0.004807249642908573
4542783.734,1484,1479,634015282,217.97,103152194,0.023259174078702927,-0.16346576809883118,237.08413696289062,-0.0023617742117494345
4542883.734,1484,1479,634015282,217.95,103152192,0.023734688758850098,-0.16454440355300903,237.11692810058594,0.0005250779213383794
4542983.734,1484,1479,634015282,217.95,103152192,0.027542879804968834,-0.16906699538230896,237.13275146484375,0.0008634706027805805
4543083.734,1484,1479,634015282,217.93,103152190,0.029892748221755028,-0.1639145463705063,237.1343536376953,-0.0011664783814921975
4543183.734,1484,1479,634015282,217.93,103152190,0.0358370877802372,-0.15419159829616547,237.12850952148438,-0.003748319810256362
4543283.734,1484,1479,634015282,217.92,103152188,0.03357864171266556,-0.1574525535106659,237.1219482421875,-0.0035755368880927563
4543383.734,1484,1479,634015282,217.92,103152188,0.034917596727609634,-0.1649816632270813,237.1505584716797,-0.0005303717334754765
4543483.734,1484,1479,634015281,217.89,103152186,0.03565891832113266,-0.1626874804496765,237.195068359375,0.0028667114675045013
4543583.734,1484,1479,634015281,217.89,103152186,0.021454982459545135,-0.15459860861301422,237.23558044433594,0.004023365676403046
4543683.734,1484,1479,634015281,217.87,103152183,0.02276054583489895,-0.14222896099090576,237.25863647460938,0.002715612296015024
4543783.734,1484,1479,634015281,217.87,103152183,0.02454669028520584,-0.1577664017677307,237.25808715820312,0.000257885898463428
4543883.734,1484,1479,634015281,217.86,103152181,0.022994985803961754,-0.17576460540294647,237.28195190429688,-0.0017187116900458932
4543983.734,1484,1479,634015281,217.86,103152181,0.03233077749609947,-0.18156421184539795,237.3035888671875,-0.0013252949574962258
4544083.734,1484,1479,634015281,217.84,103152178,0.043145015835762024,-0.16650426387786865,237.327880859375,0.0009232001611962914
4544183.734,1484,1479,634015281,217.84,103152178,0.044004037976264954,-0.1513972133398056,237.3616485595703,0.003549437504261732
4544283.734,1484,1479,634015280,217.82,103152177,0.041247982531785965,-0.12782983481884003,237.400634765625,0.005337568931281567
4544383.734,1484,1479,634015280,217.82,103152177,0.03029327653348446,-0.1357806771993637,237.43563842773438,0.005108171608299017
4544483.734,1484,1479,634015280,217.81,103152175,0.01707577332854271,-0.1505620926618576,237.45870971679688,0.003279943484812975
4544583.734,1484,1479,634015280,217.81,103152175,0.011723114177584648,-0.17536459863185883,237.4957275390625,0.0020447103306651115
4544683.734,1484,1479,634015279,217.8,103152174,0.019426260143518448,-0.17773863673210144,237.5446014404297,0.002153760986402631
4544783.734,1484,1479,634015279,217.8,103152174,0.025632310658693314,-0.1645580232143402,237.60629272460938,0.0035170321352779865
4544883.734,1484,1479,634015279,217.81,103152172,0.03935912251472473,-0.16567978262901306,237.64404296875,0.00556494714692235
4544983.734,1484,1479,634015279,217.81,103152172,0.03974815458059311,-0.15418216586112976,237.693359375,0.006438565440475941
4545083.734,1484,1479,634015278,217.81,103152172,0.037643514573574066,-0.15012674033641815,237.75341796875,0.006294351536780596
4545183.734,1484,1479,634015278,217.81,103152172,0.02878744527697563,-0.15547822415828705,237.81039428710938,0.005434511695057154
4545283.734,1484,1479,634015277,217.8,103152171,0.015554089099168777,-0.15422777831554413,237.85421752929688,0.004733014386147261
4545383.734,1484,1479,634015277,217.8,103152171,0.014159283600747585,-0.14956578612327576,237.923095703125,0.005085551179945469
4545483.734,1484,1479,634015277,217.8,103152170,0.02093108370900154,-0.1651115119457245,237.99072265625,0.00620028842240572
4545583.734,1484,1479,634015277,217.8,103152170,0.024543996900320053,-0.18003660440444946,238.05633544921875,0.00755739351734519
4545683.734,1484,1479,634015276,217.81,103152170,0.03550923615694046,-0.17130134999752045,238.14199829101562,0.008722569793462753
4545783.734,1484,1479,634015276,217.81,103152170,0.04384393244981766,-0.16292178630828857,238.22584533691406,0.00864753033965826
4545883.734,1484,1479,634015275,217.8,103152168,0.03629196062684059,-0.1437329351902008,238.288330078125,0.007919535040855408
4545983.734,1484,1479,634015275,217.8,103152168,0.032371532171964645,-0.14087842404842377,238.3376007080078,0.00737097579985857
4546083.734,1484,1479,634015275,217.81,103152167,0.021249016746878624,-0.155182883143425,238.3807830810547,0.007341735064983368
4546183.734,1484,1479,634015275,217.81,103152167,0.027733273804187775,-0.17825733125209808,238.46571350097656,0.008134598843753338
4546283.734,1484,1479,634015275,217.81,103152165,0.02409815788269043,-0.1806337535381317,238.55224609375,0.009791668504476547
4546383.734,1484,1479,634015275,217.81,103152165,0.031197629868984222,-0.1815258264541626,238.62896728515625,0.010712497867643833
4546483.734,1484,1479,634015274,217.81,103152165,0.03688912093639374,-0.16440683603286743,238.6924591064453,0.010428568348288536
4546583.734,1484,1479,634015274,217.81,103152165,0.03440072387456894,-0.15084679424762726,238.6924591064453,0.00952606275677681
4546683.734,1484,1479,634015273,217.79,103152167,0.03531322255730629,-0.13453593850135803,238.72738647460938,0.008905074559152126
4546783.734,1484,1479,634015273,217.79,103152167,0.021685559302568436,-0.14296239614486694,238.806396484375,0.009566213935613632
4546883.734,1484,1479,634015272,217.79,103152166,0.024706091731786728,-0.14537228643894196,238.8966827392578,0.010915985330939293
4546983.734,1484,1479,634015272,217.79,103152166,0.021869700402021408,-0.16576388478279114,238.9925537109375,0.01267674658447504
4547083.734,1484,1479,634015272,217.8,103152165,0.03619003668427467,-0.18409857153892517,239.08767700195312,0.013354746624827385
4547183.734,1484,1479,634015272,217.8,103152165,0.028976956382393837,-0.18628841638565063,239.17462158203125,0.01220584474503994
4547283.734,1484,1479,634015272,217.81,103152164,0.032142288982868195,-0.1657199263572693,239.22610473632812,0.010340784676373005
4547383.734,1484,1479,634015272,217.81,103152164,0.0373697355389595,-0.1437263786792755,239.30873107910156,0.009909922257065773
4547483.734,1484,1479,634015272,217.82,103152162,0.030372891575098038,-0.13010993599891663,239.40533447265625,0.011198945343494415
4547583.734,1484,1479,634015272,217.82,103152162,0.02597879245877266,-0.1422010362148285,239.49252319335938,0.01400645263493061
4547683.734,1484,1479,634015272,217.81,103152161,0.018010646104812622,-0.16313979029655457,239.55780029296875,0.015445811673998833
4547783.734,1484,1479,634015272,217.81,103152161,0.019268888980150223,-0.1843033879995346,239.65643310546875,0.0148061728104949
4547883.734,1484,1479,634015272,217.81,103152159,0.030545147135853767,-0.1711157113313675,239.70834350585938,0.012972338125109673
4547983.734,1484,1479,634015272,217.81,103152159,0.03603900223970413,-0.16592027246952057,239.7886962890625,0.01109087374061346
4548083.734,1484,1479,634015272,217.8,103152157,0.03640027344226837,-0.157679945230484,239.8742218017578,0.011066952720284462
4548183.734,1484,1479,634015272,217.8,103152157,0.026819732040166855,-0.15112096071243286,239.98806762695312,0.013347197324037552
4548283.734,1484,1479,634015271,217.8,103152155,0.029715124517679214,-0.14885413646697998,240.08917236328125,0.016143981367349625
4548383.734,1484,1479,634015271,217.8,103152155,0.027373887598514557,-0.15397927165031433,240.16746520996094,0.017784608528017998
4548483.734,1484,1479,634015271,217.79,103152154,0.03337943181395531,-0.15482033789157867,240.27061462402344,0.016920266672968864
4548583.734,1484,1479,634015271,217.79,103152154,0.032216399908065796,-0.16466504335403442,240.35540771484375,0.014249277301132679
4548683.734,1484,1479,634015271,217.79,103152153,0.02948608435690403,-0.1739945113658905,240.42245483398438,0.012308952398598194
4548783.734,1484,1479,634015271,217.79,103152153,0.024397291243076324,-0.17640165984630585,240.53164672851562,0.012972606346011162
4548883.734,1484,1479,634015271,217.79,103152152,0.029054369777441025,-0.16189926862716675,240.6569061279297,0.016295865178108215
4548983.734,1484,1479,634015271,217.79,103152152,0.03396141901612282,-0.14152167737483978,240.7926025390625,0.01854439452290535
4549083.734,1484,1479,634015271,217.8,103152151,0.028917813673615456,-0.13461287319660187,240.88204956054688,0.018692873418331146
4549183.734,1484,1479,634015271,217.8,103152151,0.027827080339193344,-0.14417515695095062,240.96859741210938,0.01745312102138996
4549283.734,1484,1479,634015271,217.79,103152150,0.03021897003054619,-0.17023903131484985,241.06307983398438,0.01595386117696762
4549383.734,1484,1479,634015271,217.79,103152150,0.03203374892473221,-0.18177422881126404,241.15135192871094,0.014915831387043
4549483.734,1484,1479,634015271,217.79,103152148,0.030124332755804062,-0.18212056159973145,241.24542236328125,0.015573989599943161
4549583.734,1484,1479,634015271,217.79,103152148,0.03256157785654068,-0.15844368934631348,241.3488006591797,0.017505213618278503
4549683.734,1484,1479,634015271,217.78,103152147,0.029290158301591873,-0.15088945627212524,241.45968627929688,0.01920761726796627
4549783.734,1484,1479,634015271,217.78,103152147,0.03699610382318497,-0.14202263951301575,241.5882568359375,0.019340880215168
4549883.734,1484,1479,634015271,217.78,103152145,0.028320319950580597,-0.14184539020061493,241.6873779296875,0.018101179972290993
4549983.734,1484,1479,634015271,217.78,103152145,0.029393799602985382,-0.16199138760566711,241.76434326171875,0.01688232645392418
4550083.734,1484,1479,634015271,217.77,103152144,0.022248726338148117,-0.18039169907569885,241.8416748046875,0.016874372959136963
4550183.734,1484,1479,634015271,217.77,103152144,0.030773214995861053,-0.1798260658979416,241.94032287597656,0.018350929021835327
4550283.734,1484,1479,634015270,217.76,103152143,0.036133985966444016,-0.17083197832107544,242.08297729492188,0.02013268508017063
4550383.734,1484,1479,634015270,217.76,103152143,0.035617753863334656,-0.14709079265594482,242.20578002929688,0.020724445581436157
4550483.734,1484,1479,634015270,217.75,103152141,0.04014526307582855,-0.1413758099079132,242.32081604003906,0.01995093561708927
4550583.734,1484,1479,634015270,217.75,103152141,0.030318915843963623,-0.13843519985675812,242.408447265625,0.018463578075170517
4550683.734,1484,1479,634015270,217.74,103152140,0.02874159999191761,-0.15914060175418854,242.49136352539062,0.017364591360092163
4550783.734,1484,1479,634015270,217.74,103152140,0.01874806545674801,-0.17986011505126953,242.58009338378906,0.018231390044093132
4550883.734,1484,1479,634015270,217.73,103152138,0.025693651288747787,-0.1798354536294937,242.70574951171875,0.020295975729823112
4550983.734,1484,1479,634015270,217.73,103152138,0.026164038106799126,-0.16547471284866333,242.84283447265625,0.022039147093892097
4551083.734,1484,1479,634015270,217.72,103152137,0.034991972148418427,-0.15197616815567017,242.947509765625,0.022245975211262703
4551183.734,1484,1479,634015270,217.72,103152137,0.034778568893671036,-0.14786124229431152,243.04771423339844,0.02061789482831955
4551283.734,1484,1479,634015271,217.72,103152135,0.04047011211514473,-0.15544237196445465,243.18316650390625,0.019343912601470947
4551383.734,1484,1479,634015271,217.72,103152135,0.0316765233874321,-0.16076065599918365,243.29808044433594,0.019513152539730072
4551483.734,1484,1479,634015270,217.7,103152134,0.029656026512384415,-0.1633782684803009,243.45700073242188,0.021162576973438263
4551583.734,1484,1479,634015270,217.7,103152134,0.025426102802157402,-0.15920484066009521,243.58932495117188,0.02254917286336422
4551683.734,1484,1479,634015270,217.7,103152132,0.030719533562660217,-0.156138613820076,243.70652770996094,0.0229047704488039
4551783.734,1484,1479,634015270,217.7,103152132,0.029583550989627838,-0.1584729105234146,243.83126831054688,0.022043701261281967
4551883.734,1484,1479,634015270,217.68,103152130,0.03166726231575012,-0.1646326631307602,243.95654296875,0.020909253507852554
4551983.734,1484,1479,634015270,217.68,103152130,0.02350557968020439,-0.16507592797279358,244.0951385498047,0.0209120474755764
4552083.734,1484,1479,634015271,217.69,103152129,0.026836302131414413,-0.16722935438156128,244.22430419921875,0.02156241424381733
4552183.734,1484,1479,634015271,217.69,103152129,0.0276949480175972,-0.15853683650493622,244.35980224609375,0.02295318990945816
4552283.734,1484,1479,634015271,217.68,103152128,0.030036209151148796,-0.15290467441082,244.46774291992188,0.02366321161389351
4552383.734,1484,1479,634015271,217.68,103152128,0.04215981066226959,-0.14886252582073212,244.63616943359375,0.023607918992638588
4552483.734,1484,1479,634015270,217.69,103152127,0.03639178350567818,-0.15515847504138947,244.75619506835938,0.02351980283856392
4552583.734,1484,1479,634015270,217.69,103152127,0.020296063274145126,-0.16043291985988617,244.89083862304688,0.023066792637109756
4552683.734,1484,1479,634015270,217.7,103152126,0.01984468661248684,-0.1694105565547943,245.0299835205078,0.022776072844862938
4552783.734,1484,1479,634015270,217.7,103152126,0.020213045179843903,-0.16945895552635193,245.16555786132812,0.022244326770305634
4552883.734,1484,1479,634015270,217.7,103152125,0.03350790962576866,-0.1590641736984253,245.29360961914062,0.02260306105017662
4552983.734,1484,1479,634015270,217.7,103152125,0.03759665787220001,-0.15855854749679565,245.39822387695312,0.023404374718666077
4553083.734,1484,1479,634015270,217.71,103152125,0.045935314148664474,-0.1560906171798706,245.54637145996094,0.024851102381944656
4553183.734,1484,1479,634015270,217.71,103152125,0.043236296623945236,-0.14910949766635895,245.69869995117188,0.02547174133360386
4553283.734,1484,1479,634015270,217.72,103152123,0.031422317028045654,-0.14705191552639008,245.82933044433594,0.024874377995729446
4553383.734,1484,1479,634015270,217.72,103152123,0.01159615907818079,-0.156789168715477,245.95884704589844,0.02397765964269638
4553483.734,1484,1479,634015270,217.73,103152123,0.018300563097000122,-0.1562843918800354,246.0797119140625,0.0235090721398592
4553583.734,1484,1479,634015270,217.73,103152123,0.019398843869566917,-0.16198134422302246,246.20217895507812,0.02340966835618019
4553683.734,1484,1479,634015269,217.72,103152122,0.029123496264219284,-0.16648699343204498,246.34982299804688,0.024281835183501244
4553783.734,1484,1479,634015269,217.72,103152122,0.038001950830221176,-0.16456200182437897,246.51333618164062,0.02472546137869358
4553883.734,1484,1479,634015269,217.73,103152122,0.044231608510017395,-0.16902033984661102,246.69027709960938,0.025605350732803345
4553983.734,1484,1479,634015269,217.73,103152122,0.03492508456110954,-0.158954918384552,246.85890197753906,0.02563985250890255
4554083.734,1484,1474,634015269,217.73,103152121,0.03524074703454971,-0.1511862874031067,246.9934844970703,0.02502613514661789
4554183.734,1484,1489,634015269,217.73,103152121,0.025234844535589218,-0.1502443104982376,247.13185119628906,0.025052040815353394
4554283.734,1484,1500,634015269,217.74,103152120,0.019534964114427567,-0.16291320323944092,247.26284790039062,0.024839390069246292
4554383.734,1484,1501,634015269,217.74,103152120,0.023470597341656685,-0.16337499022483826,247.39126586914062,0.0245516337454319
4554483.734,1484,1501,634015269,217.75,103152120,0.026154208928346634,-0.17074422538280487,247.50314331054688,0.024652976542711258
4554583.734,1484,1505,634015269,217.75,103152120,0.03482722491025925,-0.16729703545570374,247.65435791015625,0.024807047098875046
4554683.734,1484,1516,634015269,217.76,103152119,0.040150973945856094,-0.1603918820619583,247.78875732421875,0.025513645261526108
4554783.734,1484,1527,634015269,217.76,103152119,0.03694699704647064,-0.15202417969703674,247.97080993652344,0.026412388309836388
4554883.734,1484,1528,634015269,217.77,103152118,0.03308624401688576,-0.15391123294830322,248.11502075195312,0.02673223987221718
4554983.734,1484,1528,634015269,217.77,103152118,0.02111619897186756,-0.16713368892669678,248.2581329345703,0.02558075450360775
4555083.734,1484,1528,634015269,217.77,103152118,0.020013410598039627,-0.17288316786289215,248.3681182861328,0.02408580854535103
4555183.734,1484,1528,634015269,217.77,103152118,0.022734031081199646,-0.17090323567390442,248.478515625,0.023566020652651787
4555283.734,1484,1524,634015270,217.79,103152117,0.03827650472521782,-0.14599451422691345,248.60983276367188,0.02427186816930771
4555383.734,1484,1524,634015270,217.79,103152117,0.04224545136094093,-0.1426745355129242,248.73504638671875,0.02638566493988037
4555483.734,1484,1524,634015270,217.79,103152117,0.03738844394683838,-0.15764258801937103,248.87832641601562,0.02802380546927452
4555583.734,1484,1526,634015270,217.79,103152117,0.031172949820756912,-0.16661126911640167,249.04486083984375,0.02750921994447708
4555683.734,1484,1526,634015271,217.82,103152116,0.017921967431902885,-0.17532315850257874,249.17758178710938,0.02542530745267868
4555783.734,1484,1528,634015271,217.82,103152116,0.029424894601106644,-0.17160409688949585,249.31048583984375,0.022660279646515846
4555883.734,1484,1548,634015271,217.84,103152115,0.03590729087591171,-0.15447017550468445,249.42230224609375,0.022085104137659073
4555983.734,1484,1549,634015271,217.84,103152115,0.03701791912317276,-0.14431752264499664,249.5760498046875,0.024035215377807617
4556083.734,1484,1549,634015271,217.85,103152114,0.035836249589920044,-0.13521380722522736,249.72389221191406,0.02663501538336277
4556183.734,1484,1549,634015271,217.85,103152114,0.03704991564154625,-0.14946292340755463,249.877685546875,0.028135323897004128
4556283.734,1484,1549,634015271,217.87,103152113,0.030742473900318146,-0.16146861016750336,250.02688598632812,0.027570368722081184
4556383.734,1484,1549,634015271,217.87,103152113,0.021281352266669273,-0.1714768409729004,250.1599884033203,0.025023534893989563
4556483.734,1484,1549,634015272,217.88,103152112,0.023346595466136932,-0.17683303356170654,250.2678680419922,0.02300618402659893
4556583.734,1484,1549,634015272,217.88,103152112,0.02409766986966133,-0.16817520558834076,250.40206909179688,0.022807331755757332
4556683.734,1484,1546,634015271,217.89,103152112,0.026743369176983833,-0.15381646156311035,250.5320281982422,0.02428458072245121
4556783.734,1484,1533,634015271,217.89,103152112,0.04112474247813225,-0.14883825182914734,250.68597412109375,0.026187609881162643
4556883.734,1484,1542,634015271,217.9,103152110,0.039345882833004,-0.14527064561843872,250.82235717773438,0.027500083670020103
4556983.734,1484,1592,634015271,217.9,103152110,0.03790532425045967,-0.15297263860702515,250.9700164794922,0.0268684234470129
4557083.734,1484,1646,634015272,217.92,103152110,0.09450899064540863,-0.1684149205684662,251.06431579589844,0.02448291704058647
4557183.734,1484,1665,634015272,217.92,103152110,0.44960859417915344,-0.20440421998500824,251.14239501953125,0.019129551947116852
4557283.734,1484,1675,634015271,217.92,103152105,0.6177958250045776,-0.16351217031478882,251.27999877929688,0.01903439871966839
4557383.734,1484,1678,634015271,217.92,103152105,1.57780122756958,-0.15822575986385345,251.42063903808594,0.018599048256874084
4557483.734,1484,1679,634015269,217.93,103152094,2.154149055480957,-0.18322275578975677,251.52667236328125,0.00890412088483572
4557583.734,1484,1679,634015269,217.93,103152094,2.3316309452056885,-0.1301349401473999,251.71144104003906,0.014626504853367805
4557683.734,1484,1679,634015264,217.94,103152071,2.358691930770874,-0.08955066651105881,251.88722229003906,0.021209580823779106
4557783.734,1484,1679,634015264,217.94,103152071,2.1955015659332275,-0.14379149675369263,252.0087890625,0.01909012161195278
4557883.734,1477,1676,634015257,217.93,103152035,1.8801352977752686,-0.12572486698627472,252.07009887695312,0.015670381486415863
4557983.734,1459,1674,634015257,217.93,103152035,1.5391504764556885,-0.15785840153694153,252.09716796875,0.009762004017829895
4558083.734,1433,1674,634015250,217.95,103151993,1.3690212965011597,-0.2111748456954956,252.10549926757812,0.0037819226272404194
4558183.734,1416,1671,634015250,217.95,103151993,1.3593261241912842,-0.2145729809999466,252.02261352539062,-0.012943405658006668
4558283.734,1406,1669,634015241,217.95,103151945,1.4917876720428467,-0.3225705325603485,251.73260498046875,-0.04519100859761238
4558383.734,1405,1668,634015241,217.95,103151945,1.4020013809204102,-0.4591268002986908,251.17242431640625,-0.09227723628282547
4558483.734,1405,1668,634015231,217.96,103151891,1.285973310470581,-0.4513210654258728,250.4326171875,-0.12964320182800293
4558583.734,1405,1667,634015231,217.96,103151891,1.115767478942871,-0.4749574661254883,249.62039184570312,-0.14429989457130432
4558683.734,1405,1667,634015219,217.96,103151836,0.9764273166656494,-0.4858535826206207,248.81381225585938,-0.14620883762836456
4558783.734,1405,1667,634015219,217.96,103151836,0.9067496657371521,-0.412289023399353,248.05453491210938,-0.14048954844474792
4558883.734,1405,1667,634015206,217.97,103151779,0.8601633310317993,-0.3771783113479614,247.37429809570312,-0.12914729118347168
4558983.734,1405,1667,634015206,217.97,103151779,0.9174178242683411,-0.3909148871898651,246.75326538085938,-0.11707449704408646
4559083.734,1405,1667,634015192,217.98,103151723,0.9281911849975586,-0.34400635957717896,246.199951171875,-0.10745029896497726
4559183.734,1405,1667,634015192,217.98,103151723,0.9394146800041199,-0.333162397146225,245.65707397460938,-0.09973978996276855
4559283.734,1404,1667,634015178,217.99,103151667,0.905409574508667,-0.38331592082977295,245.14666748046875,-0.09469099342823029
4559383.734,1397,1667,634015178,217.99,103151667,0.9226864576339722,-0.3327879309654236,244.644287109375,-0.09224332869052887
4559483.734,1358,1667,634015163,218.01,103151609,0.898622453212738,-0.3043730854988098,244.16207885742188,-0.09243088215589523
4559583.734,1344,1667,634015163,218.01,103151609,1.142607569694519,-0.42330431938171387,243.59669494628906,-0.1006668210029602
4559683.734,1341,1667,634015147,218.02,103151552,1.3348071575164795,-0.4999237656593323,242.8289794921875,-0.13140124082565308
4559783.734,1341,1667,634015147,218.02,103151552,1.2777985334396362,-0.5316853523254395,241.93771362304688,-0.16352234780788422
4559883.734,1341,1667,634015129,218.04,103151493,1.2766919136047363,-0.5713980197906494,240.9940185546875,-0.17914283275604248
4559983.734,1341,1667,634015129,218.04,103151493,1.2548599243164062,-0.5450102090835571,239.99252319335938,-0.1824953556060791
4560083.734,1341,1667,634015110,218.06,103151434,1.1887753009796143,-0.5151625871658325,239.03126525878906,-0.18048149347305298
4560183.734,1341,1667,634015110,218.06,103151434,1.136182188987732,-0.542717456817627,238.120361328125,-0.17271703481674194
4560283.734,1341,1667,634015091,218.08,103151376,1.1471763849258423,-0.4950149357318878,237.25762939453125,-0.16523152589797974
4560383.734,1341,1667,634015091,218.08,103151376,1.1147947311401367,-0.44453462958335876,236.41915893554688,-0.1598721444606781
4560483.734,1341,1667,634015068,218.07,103151321,1.1109732389450073,-0.45963406562805176,235.5712890625,-0.15836751461029053
4560583.734,1341,1667,634015068,218.07,103151321,1.0889194011688232,-0.4617142081260681,234.71669006347656,-0.15735742449760437
4560683.734,1341,1667,634015046,218.09,103151266,1.092164397239685,-0.4860619604587555,233.88226318359375,-0.15651987493038177
4560783.734,1341,1667,634015046,218.09,103151266,1.1001027822494507,-0.5448226928710938,233.0407257080078,-0.1567305326461792
4560883.734,1341,1667,634015023,218.1,103151212,1.1169934272766113,-0.49526524543762207,232.19012451171875,-0.1574726700782776
4560983.734,1341,1667,634015023,218.1,103151212,1.1087006330490112,-0.45804500579833984,231.37864685058594,-0.15725046396255493
4561083.734,1341,1667,634015000,218.11,103151160,1.0600762367248535,-0.5141253471374512,230.54782104492188,-0.15776503086090088
4561183.734,1341,1667,634015000,218.11,103151160,1.0916268825531006,-0.5401577353477478,229.7037353515625,-0.15851862728595734
4561283.734,1341,1667,634014975,218.11,103151110,1.0689283609390259,-0.47491541504859924,228.85372924804688,-0.15837685763835907
4561383.734,1341,1667,634014975,218.11,103151110,1.1003754138946533,-0.4873865246772766,228.00515747070312,-0.1575905829668045
4561483.734,1339,1667,634014949,218.1,103151062,1.0811500549316406,-0.44028687477111816,227.16473388671875,-0.15772615373134613
4561583.734,1339,1667,634014949,218.1,103151062,1.0804896354675293,-0.457304984331131,226.32070922851562,-0.15751725435256958
4561683.734,1339,1667,634014924,218.13,103151015,1.0929641723632812,-0.4950302243232727,225.4729766845703,-0.15720467269420624
4561783.734,1339,1667,634014924,218.13,103151015,1.0954461097717285,-0.4976687431335449,224.62362670898438,-0.15677779912948608
4561883.734,1338,1667,634014897,218.12,103150971,1.096867322921753,-0.4833926558494568,223.78228759765625,-0.15640094876289368
4561983.734,1338,1667,634014897,218.12,103150971,1.1270465850830078,-0.46250781416893005,222.92291259765625,-0.1586950421333313
4562083.734,1333,1667,634014870,218.13,103150929,1.163926124572754,-0.4908977746963501,222.05908203125,-0.16173112392425537
4562183.734,1328,1667,634014870,218.13,103150929,1.156949520111084,-0.5530707240104675,221.1908416748047,-0.1636318415403366
4562283.734,1325,1667,634014843,218.16,103150887,1.224943995475769,-0.48134487867355347,220.2884063720703,-0.16857436299324036
4562383.734,1323,1667,634014843,218.16,103150887,1.2131445407867432,-0.5634199380874634,219.36529541015625,-0.17241671681404114
4562483.734,1319,1667,634014814,218.2,103150848,1.2165255546569824,-0.5221238136291504,218.4236602783203,-0.1768934577703476
4562583.734,1316,1667,634014814,218.2,103150848,1.2612085342407227,-0.5854707956314087,217.48617553710938,-0.17831850051879883
4562683.734,1315,1667,634014783,218.19,103150811,1.2466723918914795,-0.5228580236434937,216.51760864257812,-0.1810741424560547
4562783.734,1313,1667,634014783,218.19,103150811,1.2969708442687988,-0.5341917276382446,215.5509796142578,-0.18138879537582397
4562883.734,1311,1667,634014752,218.18,103150776,1.2527942657470703,-0.5798494815826416,214.58009338378906,-0.18184642493724823
4562983.734,1307,1667,634014752,218.18,103150776,1.3249554634094238,-0.5471034049987793,213.6080780029297,-0.18296650052070618
4563083.734,1305,1667,634014720,218.2,103150744,1.2765685319900513,-0.5418360829353333,212.62295532226562,-0.1857302188873291
4563183.734,1297,1667,634014720,218.2,103150744,1.3341487646102905,-0.5809496641159058,211.6470184326172,-0.1861148178577423
4563283.734,1292,1667,634014687,218.2,103150713,1.3396084308624268,-0.6191365718841553,210.62612915039062,-0.18866276741027832
4563383.734,1291,1667,634014687,218.2,103150713,1.347766637802124,-0.5564832091331482,209.6146240234375,-0.1930600106716156
4563483.734,1290,1667,634014654,218.21,103150685,1.3945575952529907,-0.5960312485694885,208.53106689453125,-0.1962238848209381
4563583.734,1289,1667,634014654,218.21,103150685,1.3946882486343384,-0.5874460935592651,207.4634246826172,-0.19935038685798645
4563683.734,1287,1667,634014619,218.23,103150660,1.3670287132263184,-0.6050276756286621,206.39089965820312,-0.2023155391216278
4563783.734,1287,1667,634014619,218.23,103150660,1.3535488843917847,-0.6107454299926758,205.31466674804688,-0.20350497961044312
4563883.734,1286,1667,634014583,218.24,103150639,1.3311797380447388,-0.6105836629867554,204.232421875,-0.20346257090568542
4563983.734,1284,1667,634014583,218.24,103150639,1.3178638219833374,-0.677949070930481,203.13417053222656,-0.20349478721618652
4564083.734,1283,1667,634014548,218.26,103150619,1.3381023406982422,-0.6208213567733765,202.0477294921875,-0.2031484991312027
4564183.734,1283,1667,634014548,218.26,103150619,1.3483062982559204,-0.5934492349624634,200.94798278808594,-0.2040192186832428
4564283.734,1283,1667,634014512,218.26,103150603,1.2774304151535034,-0.6374963521957397,199.87489318847656,-0.20445895195007324
4564383.734,1281,1667,634014512,218.26,103150603,1.313326120376587,-0.6652582883834839,198.7633514404297,-0.20404911041259766
4564483.734,1281,1666,634014475,218.27,103150591,1.3196736574172974,-0.6340940594673157,197.6365966796875,-0.20533624291419983
4564583.734,1281,1632,634014475,218.27,103150591,1.3202775716781616,-0.6528209447860718,196.48672485351562,-0.2092495858669281
4564683.734,1280,1623,634014437,218.28,103150581,1.182003378868103,-0.701612651348114,195.35655212402344,-0.21080243587493896
4564783.734,1279,1622,634014437,218.28,103150581,0.9123530387878418,-0.5885560512542725,194.25985717773438,-0.20330697298049927
4564883.734,1279,1621,634014401,218.28,103150576,0.9280155301094055,-0.6599493622779846,193.18809509277344,-0.19245555996894836
4564983.734,1278,1620,634014401,218.28,103150576,0.898769736289978,-0.5915126800537109,192.14955139160156,-0.1865868717432022
4565083.734,1278,1620,634014366,218.3,103150574,0.9114751815795898,-0.5876350402832031,191.12252807617188,-0.18338802456855774
4565183.734,1278,1620,634014366,218.3,103150574,0.9845941066741943,-0.5857245922088623,190.12200927734375,-0.18199846148490906
4565283.734,1278,1620,634014330,218.3,103150575,1.0037626028060913,-0.6044369339942932,189.10955810546875,-0.18366651237010956
4565383.734,1278,1620,634014330,218.3,103150575,1.0331190824508667,-0.5951544642448425,188.08050537109375,-0.18295979499816895
4565483.734,1277,1620,634014296,218.3,103150578,1.0472843647003174,-0.5597230195999146,187.05899047851562,-0.18182282149791718
4565583.734,1277,1620,634014296,218.3,103150578,1.120227575302124,-0.6180668473243713,186.06478881835938,-0.18135273456573486
4565683.734,1276,1620,634014260,218.31,103150585,1.1068838834762573,-0.5102020502090454,185.05335998535156,-0.1811819225549698
4565783.734,1275,1620,634014260,218.31,103150585,1.0835394859313965,-0.5393121838569641,184.05955505371094,-0.17782755196094513
4565883.734,1275,1620,634014226,218.32,103150595,1.1087571382522583,-0.5014780759811401,183.11973571777344,-0.17121058702468872
4565983.734,1275,1620,634014226,218.32,103150595,1.1329989433288574,-0.5059414505958557,182.1848602294922,-0.16802379488945007
4566083.734,1275,1620,634014193,218.32,103150606,1.1326754093170166,-0.5316272377967834,181.23634338378906,-0.16811233758926392
4566183.734,1275,1620,634014193,218.32,103150606,1.190183401107788,-0.5260785818099976,180.26971435546875,-0.16927886009216309
4566283.734,1275,1620,634014159,218.33,103150619,1.1282769441604614,-0.5168372392654419,179.2794189453125,-0.17138983309268951
4566383.734,1275,1620,634014159,218.33,103150619,1.1498360633850098,-0.516556978225708,178.2886505126953,-0.17362111806869507
4566483.734,1275,1620,634014126,218.34,103150636,1.1547703742980957,-0.5573870539665222,177.3096923828125,-0.1758822500705719
4566583.734,1275,1620,634014126,218.34,103150636,1.1544734239578247,-0.49716681241989136,176.34515380859375,-0.17657825350761414
4566683.734,1275,1620,634014094,218.37,103150655,1.1229286193847656,-0.5498433709144592,175.36306762695312,-0.17550981044769287
4566783.734,1275,1620,634014094,218.37,103150655,1.151612639427185,-0.534774899482727,174.37586975097656,-0.17393846809864044
4566883.734,1275,1620,634014061,218.38,103150676,1.1046631336212158,-0.5399066209793091,173.41246032714844,-0.1729508936405182
4566983.734,1275,1620,634014061,218.38,103150676,1.1158275604248047,-0.5104165077209473,172.48777770996094,-0.16815105080604553
4567083.734,1274,1620,634014028,218.39,103150701,1.1243836879730225,-0.47094765305519104,171.58670043945312,-0.16378258168697357
4567183.734,1271,1620,634014028,218.39,103150701,1.1581614017486572,-0.4971083402633667,170.68421936035156,-0.16230979561805725
4567283.734,1269,1620,634013997,218.41,103150727,1.1901381015777588,-0.4610913395881653,169.7815704345703,-0.1627017855644226
4567383.734,1266,1620,634013997,218.41,103150727,1.2069058418273926,-0.5332552194595337,168.84237670898438,-0.16414816677570343
4567483.734,1260,1620,634013965,218.41,103150756,1.2004576921463013,-0.5040463805198669,167.84765625,-0.1679650843143463
4567583.734,1255,1620,634013965,218.41,103150756,1.2962905168533325,-0.5160974264144897,166.85000610351562,-0.17165100574493408
4567683.734,1250,1620,634013933,218.42,103150788,1.300058364868164,-0.5699270963668823,165.80116271972656,-0.1788543164730072
4567783.734,1246,1620,634013933,218.42,103150788,1.317004680633545,-0.5988836288452148,164.74024963378906,-0.18481990694999695
4567883.734,1246,1620,634013902,218.45,103150823,1.346653938293457,-0.6380025744438171,163.6520538330078,-0.19063900411128998
4567983.734,1245,1620,634013902,218.45,103150823,1.362494707107544,-0.586671769618988,162.5133056640625,-0.19807089865207672
4568083.734,1245,1620,634013871,218.45,103150861,1.3378058671951294,-0.6157820224761963,161.37025451660156,-0.20010074973106384
4568183.734,1245,1620,634013871,218.45,103150861,1.3309959173202515,-0.6415849328041077,160.21742248535156,-0.1996089518070221
4568283.734,1244,1620,634013841,218.48,103150903,1.3172625303268433,-0.6166695356369019,159.0712890625,-0.2001246064901352
4568383.734,1240,1620,634013841,218.48,103150903,1.2562661170959473,-0.628617525100708,157.95681762695312,-0.19941383600234985
4568483.734,1238,1620,634013811,218.5,103150947,1.3027887344360352,-0.634293258190155,156.8302764892578,-0.1992645263671875
4568583.734,1238,1620,634013811,218.5,103150947,1.32517671585083,-0.6365824341773987,155.6492919921875,-0.20136278867721558
4568683.734,1238,1620,634013782,218.52,103150994,1.2978575229644775,-0.6664078831672668,154.47657775878906,-0.20359832048416138
4568783.734,1238,1620,634013782,218.52,103150994,1.3000617027282715,-0.61815345287323,153.3107147216797,-0.20120561122894287
4568883.734,1238,1620,634013753,218.54,103151045,1.2833356857299805,-0.6180121302604675,152.18101501464844,-0.19797585904598236
4568983.734,1238,1620,634013753,218.54,103151045,1.3096399307250977,-0.5917924642562866,151.0127716064453,-0.19933220744132996
4569083.734,1238,1620,634013725,218.54,103151098,1.2723519802093506,-0.6330459117889404,149.8126220703125,-0.2009752094745636
4569183.734,1238,1620,634013725,218.54,103151098,1.2524702548980713,-0.6171680092811584,148.60589599609375,-0.20357297360897064
4569283.734,1238,1620,634013698,218.56,103151153,1.253846526145935,-0.616295576095581,147.3914337158203,-0.20615650713443756
4569383.734,1238,1620,634013698,218.56,103151153,1.2185168266296387,-0.6044718027114868,146.18771362304688,-0.20605327188968658
4569483.734,1238,1620,634013672,218.57,103151212,1.2254230976104736,-0.6122464537620544,145.00115966796875,-0.2038922905921936
4569583.734,1238,1620,634013672,218.57,103151212,1.1986663341522217,-0.5598950386047363,143.87313842773438,-0.19679534435272217
4569683.734,1238,1620,634013647,218.58,103151272,1.2592931985855103,-0.5764527320861816,142.70858764648438,-0.1948995441198349
4569783.734,1237,1620,634013647,218.58,103151272,1.2083454132080078,-0.6380143165588379,141.4872283935547,-0.19658561050891876
4569883.734,1237,1620,634013623,218.58,103151335,1.2519749402999878,-0.6142418384552002,140.2995147705078,-0.19796408712863922
4569983.734,1237,1620,634013623,218.58,103151335,1.2652873992919922,-0.6293721199035645,139.06056213378906,-0.20063185691833496
4570083.734,1237,1620,634013600,218.6,103151399,1.2464845180511475,-0.6803340911865234,137.8258056640625,-0.2033974677324295
4570183.734,1237,1620,634013600,218.6,103151399,1.2542670965194702,-0.6924725770950317,136.58047485351562,-0.2036372423171997
4570283.734,1237,1620,634013579,218.62,103151465,1.2734650373458862,-0.6358394622802734,135.34707641601562,-0.20287105441093445
4570383.734,1237,1620,634013579,218.62,103151465,1.2323909997940063,-0.5789605379104614,134.11895751953125,-0.2025097906589508
4570483.734,1237,1620,634013558,218.62,103151534,1.2880991697311401,-0.6246596574783325,132.8749542236328,-0.2019984871149063
4570583.734,1237,1620,634013558,218.62,103151534,1.2138895988464355,-0.5323506593704224,131.6474151611328,-0.20067475736141205
4570683.734,1237,1620,634013539,218.63,103151605,1.2397005558013916,-0.5725783705711365,130.45265197753906,-0.1966414451599121
4570783.734,1237,1620,634013539,218.63,103151605,1.2767791748046875,-0.6721817851066589,129.22401428222656,-0.19927455484867096
4570883.734,1237,1620,634013522,218.65,103151676,1.2678956985473633,-0.68752521276474,127.92487335205078,-0.20791324973106384
4570983.734,1237,1620,634013522,218.65,103151676,1.2824815511703491,-0.6702358722686768,126.6012954711914,-0.21419936418533325
4571083.734,1237,1620,634013505,218.66,103151752,1.2313874959945679,-0.7147111892700195,125.25086975097656,-0.218364417552948
4571183.734,1237,1620,634013505,218.66,103151752,1.2451801300048828,-0.6760153770446777,123.91413116455078,-0.2199482023715973
4571283.734,1237,1620,634013490,218.66,103151829,1.1889512538909912,-0.658926784992218,122.55741119384766,-0.21865712106227875
4571383.734,1237,1620,634013490,218.66,103151829,1.217943787574768,-0.6296167373657227,121.20909118652344,-0.2139790654182434
4571483.734,1237,1620,634013475,218.67,103151906,1.2249345779418945,-0.656786322593689,119.85833740234375,-0.21194976568222046
4571583.734,1236,1620,634013475,218.67,103151906,1.2451238632202148,-0.6937450170516968,118.5879898071289,-0.2075696736574173
4571683.734,1236,1620,634013471,218.74,103151981,1.217685580253601,-0.6713684797286987,117.30032348632812,-0.2051282376050949
4571783.734,1235,1620,634013471,218.74,103151981,1.252602458000183,-0.6760076880455017,116.02638244628906,-0.2050921767950058
4571883.734,1235,1620,634013462,218.79,103152060,1.2206153869628906,-0.6676216125488281,114.72550964355469,-0.20399951934814453
4571983.734,1235,1620,634013462,218.79,103152060,1.2455447912216187,-0.6254475116729736,113.41622161865234,-0.20519478619098663
4572083.734,1234,1620,634013455,218.85,103152139,1.236617922782898,-0.5971452593803406,112.06758880615234,-0.2069346010684967
4572183.734,1233,1620,634013455,218.85,103152139,1.219527244567871,-0.613063395023346,110.72138214111328,-0.20866844058036804
4572283.734,1232,1620,634013449,218.89,103152219,1.2122137546539307,-0.6405781507492065,109.4474868774414,-0.20805270969867706
4572383.734,1232,1620,634013449,218.89,103152219,1.2585718631744385,-0.6289929747581482,108.12269592285156,-0.20903506875038147
4572483.734,1232,1620,634013446,218.94,103152299,1.2694896459579468,-0.6802929639816284,106.78398895263672,-0.21056343615055084
4572583.734,1232,1620,634013446,218.94,103152299,1.2970538139343262,-0.701485812664032,105.41519165039062,-0.21388289332389832
4572683.734,1232,1620,634013445,218.99,103152379,1.2756761312484741,-0.6154155731201172,104.0496826171875,-0.21400435268878937
4572783.734,1232,1620,634013445,218.99,103152379,1.2520408630371094,-0.6266028881072998,102.68110656738281,-0.21478044986724854
4572883.734,1232,1620,634013445,219.04,103152459,1.224560260772705,-0.6455860733985901,101.307861328125,-0.21472111344337463
4572983.734,1232,1620,634013445,219.04,103152459,1.207370638847351,-0.5915805697441101,99.94396209716797,-0.2121671587228775
4573083.734,1230,1620,634013446,219.09,103152540,1.2223622798919678,-0.6247422695159912,98.60468292236328,-0.2097054123878479
4573183.734,1230,1620,634013446,219.09,103152540,1.251659631729126,-0.7021203637123108,97.24729919433594,-0.20721569657325745
4573283.734,1230,1620,634013448,219.13,103152621,1.2431914806365967,-0.656690239906311,95.92344665527344,-0.20735260844230652
4573383.734,1230,1620,634013448,219.13,103152621,1.206451416015625,-0.5936071872711182,94.59371185302734,-0.2056141048669815
4573483.734,1230,1620,634013452,219.17,103152701,1.2771835327148438,-0.681262731552124,93.27043914794922,-0.20478427410125732
4573583.734,1230,1620,634013452,219.17,103152701,1.2399007081985474,-0.6454585790634155,91.90164184570312,-0.20782306790351868
4573683.734,1230,1620,634013457,219.2,103152781,1.2640187740325928,-0.6471194624900818,90.5099868774414,-0.2124146819114685
4573783.734,1230,1620,634013457,219.2,103152781,1.225411057472229,-0.7046080827713013,89.12693786621094,-0.21520303189754486
4573883.734,1230,1620,634013464,219.22,103152861,1.2874791622161865,-0.6897086501121521,87.74974822998047,-0.21659636497497559
4573983.734,1230,1620,634013464,219.22,103152861,1.2505570650100708,-0.6710989475250244,86.32427978515625,-0.2177518904209137
4574083.734,1230,1620,634013472,219.25,103152941,1.305225133895874,-0.6259370446205139,84.90721130371094,-0.2188342809677124
4574183.734,1230,1620,634013472,219.25,103152941,1.2311699390411377,-0.6328749656677246,83.4867935180664,-0.21749716997146606
4574283.734,1229,1620,634013481,219.28,103153021,1.2315177917480469,-0.5547411441802979,82.08653259277344,-0.216168612241745
4574383.734,1228,1620,634013481,219.28,103153021,1.245138168334961,-0.6543336510658264,80.6924819946289,-0.20954711735248566
4574483.734,1224,1620,634013492,219.3,103153099,1.2756762504577637,-0.7008265852928162,79.3312759399414,-0.20746542513370514
4574583.734,1223,1620,634013492,219.3,103153099,1.2882592678070068,-0.7117294669151306,77.94322204589844,-0.20853154361248016
4574683.734,1222,1620,634013505,219.33,103153179,1.3999438285827637,-0.715399980545044,76.47908782958984,-0.2198239266872406
4574783.734,1220,1620,634013505,219.33,103153179,1.325556755065918,-0.7144173383712769,74.98783874511719,-0.22703637182712555
4574883.734,1219,1620,634013519,219.34,103153256,1.318069577217102,-0.717283308506012,73.48690032958984,-0.22966137528419495
4574983.734,1218,1620,634013519,219.34,103153256,1.295443058013916,-0.7012608647346497,71.97309112548828,-0.2284412533044815
4575083.734,1216,1620,634013534,219.36,103153331,1.321103811264038,-0.6623605489730835,70.48898315429688,-0.22600886225700378
4575183.734,1216,1620,634013534,219.36,103153331,1.272714614868164,-0.6978294849395752,69.02207946777344,-0.2230263650417328
4575283.734,1210,1620,634013552,219.37,103153408,1.3440641164779663,-0.6338107585906982,67.57347869873047,-0.22381272912025452
4575383.734,1209,1620,634013552,219.37,103153408,1.352430820465088,-0.6941069960594177,66.13428497314453,-0.2230238914489746
4575483.734,1209,1620,634013570,219.38,103153482,1.3136937618255615,-0.6659185290336609,64.646240234375,-0.22563108801841736
4575583.734,1209,1620,634013570,219.38,103153482,1.322573184967041,-0.7251626253128052,63.146541595458984,-0.22642722725868225
4575683.734,1209,1620,634013590,219.4,103153554,1.3223869800567627,-0.7069462537765503,61.66357421875,-0.2263040989637375
4575783.734,1209,1620,634013590,219.4,103153554,1.3159353733062744,-0.7491668462753296,60.16914749145508,-0.22669759392738342
4575883.734,1208,1620,634013611,219.41,103153625,1.32370924949646,-0.7320693135261536,58.68558883666992,-0.22834229469299316
4575983.734,1207,1620,634013611,219.41,103153625,1.292741298675537,-0.6286368370056152,57.19413757324219,-0.2290257066488266
4576083.734,1207,1620,634013634,219.42,103153694,1.3245800733566284,-0.7350116968154907,55.663055419921875,-0.22972598671913147
4576183.734,1207,1620,634013634,219.42,103153694,1.2863383293151855,-0.6708667278289795,54.12504196166992,-0.2331368625164032
4576283.734,1207,1620,634013658,219.42,103153761,1.292803406715393,-0.7462136745452881,52.5762939453125,-0.2322894185781479
4576383.734,1207,1620,634013658,219.42,103153761,1.2678935527801514,-0.6663925647735596,51.05196762084961,-0.2319946438074112
4576483.734,1206,1620,634013683,219.43,103153824,1.2534905672073364,-0.7583592534065247,49.54736328125,-0.2294912189245224
4576583.734,1206,1620,634013683,219.43,103153824,1.4012571573257446,-0.7025284171104431,48.022003173828125,-0.23173370957374573
4576683.734,1206,1620,634013711,219.44,103153886,1.3204963207244873,-0.7323047518730164,46.501407623291016,-0.23270907998085022
4576783.734,1206,1620,634013711,219.44,103153886,1.4574205875396729,-0.7439167499542236,44.99504852294922,-0.23085856437683105
4576883.734,1204,1620,634013739,219.46,103153944,1.2652647495269775,-0.6466858386993408,43.519535064697266,-0.22639994323253632
4576983.734,1204,1620,634013739,219.46,103153944,1.3655121326446533,-0.765388548374176,42.01340103149414,-0.2276049703359604
4577083.734,1198,1620,634013769,219.47,103154001,1.3195812702178955,-0.687764048576355,40.49965286254883,-0.23284466564655304
4577183.734,1196,1620,634013769,219.47,103154001,1.3494199514389038,-0.7880196571350098,38.91555404663086,-0.23957917094230652
4577283.734,1196,1620,634013800,219.48,103154053,1.3261959552764893,-0.7885845303535461,37.32984924316406,-0.24457331001758575
4577383.734,1196,1620,634013800,219.48,103154053,1.3323345184326172,-0.7407616376876831,35.760318756103516,-0.2450067549943924
4577483.734,1196,1620,634013833,219.5,103154103,1.3431570529937744,-0.7832379937171936,34.190486907958984,-0.2428581863641739
4577583.734,1196,1620,634013833,219.5,103154103,1.3332455158233643,-0.7441908121109009,32.598724365234375,-0.24394847452640533
4577683.734,1196,1620,634013867,219.53,103154150,1.2768360376358032,-0.7688538432121277,31.056489944458008,-0.24151714146137238
4577783.734,1196,1620,634013867,219.53,103154150,1.3122528791427612,-0.7425068616867065,29.515605926513672,-0.23761408030986786
4577883.734,1196,1620,634013902,219.56,103154192,1.3486661911010742,-0.7281429171562195,27.993852615356445,-0.2386080026626587
4577983.734,1196,1620,634013902,219.56,103154192,1.3573836088180542,-0.7793643474578857,26.458173751831055,-0.24279773235321045
4578083.734,1196,1620,634013939,219.59,103154231,1.2897515296936035,-0.7166500091552734,24.925535202026367,-0.2421761453151703
4578183.734,1196,1620,634013939,219.59,103154231,1.278160810470581,-0.7045525908470154,23.42123031616211,-0.23682202398777008
4578283.734,1196,1620,634013976,219.61,103154265,1.294007658958435,-0.7731401920318604,21.92350196838379,-0.2322957068681717
4578383.734,1196,1620,634013976,219.61,103154265,1.269906997680664,-0.7350224256515503,20.41216468811035,-0.2344677746295929
4578483.734,1196,1620,634014014,219.64,103154297,1.3242803812026978,-0.7616883516311646,18.884719848632812,-0.23799541592597961
4578583.734,1196,1620,634014014,219.64,103154297,1.2893424034118652,-0.7916582822799683,17.323787689208984,-0.24374675750732422
4578683.734,1196,1620,634014053,219.66,103154324,1.2780678272247314,-0.7547816038131714,15.768549919128418,-0.24662598967552185
4578783.734,1196,1620,634014053,219.66,103154324,1.3195805549621582,-0.7946024537086487,14.228041648864746,-0.24491280317306519
4578883.734,1196,1620,634014092,219.67,103154347,1.3081579208374023,-0.7575480937957764,12.68957805633545,-0.24507541954517365
4578983.734,1196,1620,634014092,219.67,103154347,1.2686307430267334,-0.6594061255455017,11.180842399597168,-0.23920989036560059
4579083.734,1196,1620,634014131,219.69,103154367,1.2519183158874512,-0.7599121332168579,9.72326374053955,-0.23152722418308258
4579183.734,1196,1620,634014131,219.69,103154367,1.3104887008666992,-0.6860260963439941,8.30168342590332,-0.22727099061012268
4579283.734,1196,1620,634014171,219.7,103154382,1.3185460567474365,-0.7210431694984436,6.8544111251831055,-0.22707927227020264
4579383.734,1196,1620,634014171,219.7,103154382,1.361531138420105,-0.7529112696647644,5.387505531311035,-0.23101553320884705
4579483.734,1196,1620,634014211,219.71,103154394,1.3355450630187988,-0.7701744437217712,3.8493666648864746,-0.24198514223098755
4579583.734,1196,1620,634014211,219.71,103154394,1.2597092390060425,-0.8058586716651917,2.3115739822387695,-0.2503366470336914
4579683.734,1196,1620,634014251,219.71,103154401,1.2855100631713867,-0.722238302230835,0.8164156079292297,-0.2465466856956482
4579783.734,1196,1620,634014251,219.71,103154401,1.2640323638916016,-0.6906460523605347,359.3776550292969,-0.2385006844997406
4579883.734,1196,1620,634014291,219.71,103154403,1.302343487739563,-0.7335943579673767,357.970703125,-0.23187053203582764
4579983.734,1196,1620,634014291,219.71,103154403,1.2793960571289062,-0.6649218797683716,356.54010009765625,-0.23174922168254852
4580083.734,1196,1620,634014330,219.7,103154402,1.2752948999404907,-0.7603438496589661,355.088623046875,-0.23191684484481812
4580183.734,1196,1620,634014330,219.7,103154402,1.346768856048584,-0.7630913853645325,353.6542053222656,-0.2331515997648239
4580283.734,1196,1620,634014370,219.7,103154395,1.3034110069274902,-0.7159403562545776,352.1518859863281,-0.24073325097560883
4580383.734,1196,1620,634014370,219.7,103154395,1.2921664714813232,-0.7813867330551147,350.6409606933594,-0.24476517736911774
4580483.734,1196,1620,634014410,219.71,103154385,1.2862303256988525,-0.7664464116096497,349.1274108886719,-0.24885684251785278
4580583.734,1196,1620,634014410,219.71,103154385,1.2678170204162598,-0.7498481273651123,347.6440734863281,-0.2419772744178772
4580683.734,1196,1620,634014451,219.72,103154370,1.2625216245651245,-0.7541002035140991,346.19512939453125,-0.2342129945755005
4580783.734,1196,1620,634014451,219.72,103154370,1.2658354043960571,-0.7917264103889465,344.7940368652344,-0.2328050434589386
4580883.734,1196,1620,634014490,219.72,103154351,1.2453079223632812,-0.7138345241546631,343.4212951660156,-0.23222285509109497
4580983.734,1196,1620,634014490,219.72,103154351,1.293319821357727,-0.7181193232536316,342.0482482910156,-0.23122574388980865
4581083.734,1196,1620,634014528,219.73,103154329,1.2861968278884888,-0.7271559834480286,340.63299560546875,-0.23424193263053894
4581183.734,1196,1620,634014528,219.73,103154329,1.3328973054885864,-0.6834574937820435,339.2478942871094,-0.23250845074653625
4581283.734,1196,1620,634014566,219.73,103154303,1.3040372133255005,-0.7646607160568237,337.8704833984375,-0.23077932000160217
4581383.734,1196,1620,634014566,219.73,103154303,1.269801139831543,-0.7648192048072815,336.4849853515625,-0.23359569907188416
4581483.734,1196,1620,634014603,219.72,103154274,1.25076425075531,-0.7203887701034546,335.1144104003906,-0.2356499880552292
4581583.734,1196,1620,634014603,219.72,103154274,1.3162155151367188,-0.7778705358505249,333.7537841796875,-0.23428496718406677
4581683.734,1196,1620,634014639,219.71,103154242,1.2899749279022217,-0.7251765727996826,332.3611755371094,-0.23418228328227997
4581783.734,1196,1620,634014639,219.71,103154242,1.3252183198928833,-0.7461321949958801,330.9547119140625,-0.23413041234016418
4581883.734,1196,1620,634014676,219.72,103154205,1.2698720693588257,-0.6847958564758301,329.5579833984375,-0.23560507595539093
4581983.734,1196,1620,634014676,219.72,103154205,1.3049392700195312,-0.7385793924331665,328.1495056152344,-0.237872913479805
4582083.734,1196,1620,634014711,219.71,103154165,1.3069301843643188,-0.7272678017616272,326.744873046875,-0.23871967196464539
4582183.734,1196,1620,634014711,219.71,103154165,1.2763105630874634,-0.7629082798957825,325.3243408203125,-0.23944860696792603
4582283.734,1196,1620,634014745,219.71,103154121,1.2806684970855713,-0.7783507108688354,323.8928527832031,-0.24243798851966858
4582383.734,1196,1620,634014745,219.71,103154121,1.2780342102050781,-0.732940137386322,322.4612121582031,-0.2417120635509491
4582483.734,1196,1620,634014779,219.71,103154073,1.3079785108566284,-0.7748376131057739,321.074462890625,-0.2382946014404297
4582583.734,1196,1620,634014779,219.71,103154073,1.3128793239593506,-0.75069260597229,319.716064453125,-0.2361353635787964
4582683.734,1196,1620,634014811,219.7,103154022,1.3035680055618286,-0.7214275598526001,318.35955810546875,-0.23749405145645142
4582783.734,1196,1620,634014811,219.7,103154022,1.2616047859191895,-0.6875427961349487,316.9888916015625,-0.23698079586029053
4582883.734,1196,1620,634014841,219.69,103153968,1.2564926147460938,-0.739991307258606,315.6260986328125,-0.23650699853897095
4582983.734,1196,1620,634014841,219.69,103153968,1.2630784511566162,-0.7737645506858826,314.2421875,-0.2386116236448288
4583083.734,1196,1620,634014871,219.7,103153910,1.2391992807388306,-0.6979183554649353,312.8851013183594,-0.23797914385795593
4583183.734,1196,1620,634014871,219.7,103153910,1.2678892612457275,-0.7838394045829773,311.5187683105469,-0.23694393038749695
4583283.734,1196,1620,634014899,219.69,103153850,1.275752067565918,-0.7685438990592957,310.1343688964844,-0.23915794491767883
4583383.734,1196,1620,634014899,219.69,103153850,1.257947325706482,-0.7790747880935669,308.7692565917969,-0.23855777084827423
4583483.734,1196,1620,634014926,219.69,103153786,1.309578537940979,-0.7399457693099976,307.4049072265625,-0.23603184521198273
4583583.734,1196,1620,634014926,219.69,103153786,1.2821089029312134,-0.7192572355270386,306.0923767089844,-0.2343500554561615
4583683.734,1196,1620,634014952,219.68,103153719,1.2900371551513672,-0.7685035467147827,304.7535400390625,-0.23399828374385834
4583783.734,1196,1620,634014952,219.68,103153719,1.2916109561920166,-0.725136399269104,303.4164733886719,-0.23648832738399506
4583883.734,1196,1620,634014976,219.67,103153649,1.302578091621399,-0.732023298740387,302.0746765136719,-0.2382112741470337
4583983.734,1196,1620,634014976,219.67,103153649,1.294029951095581,-0.7313122749328613,300.7369384765625,-0.23862339556217194
4584083.734,1196,1620,634015001,219.67,103153578,1.2823867797851562,-0.7900605201721191,299.38946533203125,-0.23891513049602509
4584183.734,1196,1620,634015001,219.67,103153578,1.2948811054229736,-0.6942281723022461,298.0940246582031,-0.23843145370483398
4584283.734,1196,1620,634015022,219.68,103153504,1.260164499282837,-0.7805189490318298,296.75445556640625,-0.23797297477722168
4584383.734,1196,1620,634015022,219.68,103153504,1.2835978269577026,-0.6918918490409851,295.4609680175781,-0.23657627403736115
4584483.734,1196,1620,634015041,219.68,103153428,1.2724008560180664,-0.7182291746139526,294.1776123046875,-0.2353588491678238
4584583.734,1196,1620,634015041,219.68,103153428,1.2725460529327393,-0.699363112449646,292.8866271972656,-0.23221927881240845
4584683.734,1196,1620,634015059,219.68,103153350,1.283771276473999,-0.7415391206741333,291.6021728515625,-0.23064815998077393
4584783.734,1196,1620,634015059,219.68,103153350,1.28706693649292,-0.688542366027832,290.3561096191406,-0.23014932870864868
4584883.734,1196,1620,634015075,219.67,103153269,1.2940001487731934,-0.7469403743743896,289.0962219238281,-0.22934871912002563
4584983.734,1196,1620,634015075,219.67,103153269,1.2552791833877563,-0.7261879444122314,287.82855224609375,-0.2317904680967331
4585083.734,1196,1620,634015088,219.65,103153188,1.2767878770828247,-0.7302754521369934,286.571044921875,-0.2318863570690155
4585183.734,1196,1620,634015088,219.65,103153188,1.26468825340271,-0.7681773900985718,285.2926330566406,-0.23225033283233643
4585283.734,1196,1620,634015100,219.64,103153106,1.2368764877319336,-0.7050827145576477,284.0007629394531,-0.23298229277133942
4585383.734,1196,1620,634015100,219.64,103153106,1.292083740234375,-0.6927792429924011,282.7406005859375,-0.2316504865884781
4585483.734,1196,1620,634015110,219.62,103153024,1.2539021968841553,-0.6738569736480713,281.4969482421875,-0.23064737021923065
4585583.734,1196,1620,634015110,219.62,103153024,1.2813117504119873,-0.7808690071105957,280.234375,-0.23044167459011078
4585683.734,1196,1620,634015119,219.61,103152939,1.30559241771698,-0.6946739554405212,278.9784851074219,-0.23263999819755554
4585783.734,1196,1620,634015119,219.61,103152939,1.28846275806427,-0.7583981156349182,277.706787109375,-0.2336738109588623
4585883.734,1196,1620,634015125,219.6,103152854,1.3090852499008179,-0.7586174011230469,276.44403076171875,-0.23430047929286957
4585983.734,1196,1620,634015125,219.6,103152854,1.2799139022827148,-0.7596272230148315,275.191650390625,-0.2345796525478363
4586083.734,1196,1620,634015131,219.61,103152767,1.3329789638519287,-0.6611129641532898,273.948486328125,-0.2320680171251297
4586183.734,1196,1620,634015131,219.61,103152767,1.2941553592681885,-0.7667104005813599,272.7193908691406,-0.23109136521816254
4586283.734,1196,1620,634015135,219.62,103152681,1.308438777923584,-0.7270463705062866,271.5018310546875,-0.2307213544845581
4586383.734,1196,1620,634015135,219.62,103152681,1.303595781326294,-0.6813921332359314,270.2916564941406,-0.23169684410095215
4586483.734,1196,1620,634015137,219.61,103152595,1.2852394580841064,-0.7195756435394287,269.0780029296875,-0.23067420721054077
4586583.734,1196,1620,634015137,219.61,103152595,1.28369140625,-0.7746095657348633,267.8373107910156,-0.2326120138168335
4586683.734,1196,1620,634015137,219.6,103152507,1.3071919679641724,-0.7131165266036987,266.5963439941406,-0.2330981194972992
4586783.734,1196,1620,634015137,219.6,103152507,1.2659274339675903,-0.7331553101539612,265.3918151855469,-0.2314586490392685
4586883.734,1196,1620,634015134,219.6,103152422,1.3100647926330566,-0.673495888710022,264.1889953613281,-0.2293921411037445
4586983.734,1196,1620,634015134,219.6,103152422,1.3034288883209229,-0.7156935930252075,262.94879150390625,-0.2288634181022644
4587083.734,1196,1620,634015131,219.59,103152336,1.3077337741851807,-0.6899723410606384,261.723388671875,-0.23137499392032623
4587183.734,1196,1620,634015131,219.59,103152336,1.256283164024353,-0.7525513172149658,260.50701904296875,-0.2326662242412567
4587283.734,1196,1620,634015126,219.56,103152251,1.2948720455169678,-0.6968050599098206,259.2940368652344,-0.2323315441608429
4587383.734,1214,1573,634015126,219.56,103152251,1.299424171447754,-0.7484140396118164,258.0997314453125,-0.2292594462633133
4587483.734,1529,1499,634015118,219.54,103152166,0.9361820220947266,-0.629279375076294,256.89227294921875,-0.22851553559303284
4587583.734,1500,1491,634015118,219.54,103152166,-0.019320771098136902,-0.5144104957580566,255.79148864746094,-0.21160081028938293
4587683.734,1497,1490,634015111,219.52,103152093,-1.2622244358062744,-0.20667678117752075,255.1749267578125,-0.13928921520709991
4587783.734,1496,1490,634015111,219.52,103152093,-1.0698723793029785,-0.05507943406701088,255.03598022460938,-0.03280560299754143
4587883.734,1496,1490,634015106,219.49,103152033,-1.2748091220855713,0.025479435920715332,255.1688232421875,0.023749947547912598
4587983.734,1496,1490,634015106,219.49,103152033,-0.9487380981445312,-0.024981824681162834,255.439208984375,0.04598808288574219
4588083.734,1496,1490,634015102,219.48,103151984,-0.6945149898529053,-0.02065805345773697,255.77171325683594,0.050490640103816986
4588183.734,1496,1490,634015102,219.48,103151984,-0.30647000670433044,-0.08409340679645538,256.1070556640625,0.04522423446178436
4588283.734,1496,1490,634015099,219.47,103151940,-0.24029238522052765,-0.1721462905406952,256.3939208984375,0.043283671140670776
4588383.734,1496,1490,634015099,219.47,103151940,-0.20139984786510468,-0.15029378235340118,256.61480712890625,0.03873424232006073
4588483.734,1496,1490,634015095,219.44,103151901,-0.4142023026943207,-0.12665319442749023,256.7802734375,0.030308950692415237
4588583.734,1496,1490,634015095,219.44,103151901,-0.4216722249984741,-0.132492333650589,256.89093017578125,0.024147674441337585
4588683.734,1496,1490,634015092,219.44,103151865,-0.5475375056266785,-0.1232682466506958,257.0162048339844,0.01923406682908535
4588783.734,1496,1490,634015092,219.44,103151865,-0.2763482928276062,-0.1410551220178604,257.16693115234375,0.016330420970916748
4588883.734,1496,1490,634015090,219.44,103151832,-0.3196936249732971,-0.13616937398910522,257.2994079589844,0.011999597772955894
4588983.734,1496,1490,634015090,219.44,103151832,-0.08949589729309082,-0.2173728048801422,257.40826416015625,0.007745018228888512
4589083.734,1496,1490,634015088,219.43,103151797,-0.22102180123329163,-0.12163002043962479,257.4949951171875,0.007149531040340662
4589183.734,1496,1490,634015088,219.43,103151797,-0.2149008959531784,-0.15088900923728943,257.5872802734375,0.007382855284959078
4589283.734,1496,1490,634015086,219.42,103151762,-0.35104385018348694,-0.15747804939746857,257.66412353515625,0.0064810896292328835
4589383.734,1496,1490,634015086,219.42,103151762,-0.30941304564476013,-0.12741558253765106,257.7510986328125,0.004588884301483631
4589483.734,1496,1490,634015083,219.43,103151728,-0.35311490297317505,-0.1281549483537674,257.8170166015625,0.002260849578306079
4589583.734,1496,1490,634015083,219.43,103151728,-0.2917839586734772,-0.1697961688041687,257.8863525390625,-0.00035521574318408966
4589683.734,1496,1490,634015081,219.41,103151697,-0.26769784092903137,-0.15671797096729279,257.9478454589844,-0.004193587694317102
4589783.734,1496,1490,634015081,219.41,103151697,-0.2536388635635376,-0.17956194281578064,257.9945068359375,-0.009172771126031876
4589883.734,1496,1490,634015079,219.39,103151667,-0.24634894728660583,-0.19192445278167725,258.02386474609375,-0.0117055494338274
4589983.734,1496,1490,634015079,219.39,103151667,-0.19215214252471924,-0.14072909951210022,258.0196838378906,-0.012977629899978638
4590083.734,1496,1490,634015077,219.37,103151639,-0.19051802158355713,-0.1450178325176239,258.0020446777344,-0.014535725116729736
4590183.734,1496,1490,634015077,219.37,103151639,-0.19239680469036102,-0.18313628435134888,257.9748229980469,-0.016260316595435143
4590283.734,1496,1490,634015076,219.35,103151615,-0.13316641747951508,-0.1661367267370224,257.94366455078125,-0.015179259702563286
4590383.734,1496,1490,634015076,219.35,103151615,-0.09350888431072235,-0.15260717272758484,257.91351318359375,-0.011706966906785965
4590483.734,1496,1490,634015074,219.32,103151593,-0.029447762295603752,-0.18327409029006958,257.89990234375,-0.00720513891428709
4590583.734,1496,1490,634015074,219.32,103151593,-0.015657629817724228,-0.18007728457450867,257.89593505859375,-0.004040430765599012
4590683.734,1496,1490,634015072,219.3,103151572,-0.016821790486574173,-0.1532008945941925,257.91552734375,-0.0031670397147536278
4590783.734,1496,1490,634015072,219.3,103151572,-0.044821664690971375,-0.17026767134666443,257.93280029296875,-0.0010849155951291323
4590883.734,1496,1490,634015071,219.29,103151552,-0.06855068355798721,-0.15387406945228577,257.9585266113281,0.0009733432671055198
4590983.734,1496,1490,634015071,219.29,103151552,-0.09054184705018997,-0.17080946266651154,257.99627685546875,0.00015134521527215838
4591083.734,1496,1490,634015069,219.28,103151530,-0.11384954303503036,-0.1795514076948166,258.0156555175781,-0.003400596557185054
4591183.734,1496,1490,634015069,219.28,103151530,-0.14868755638599396,-0.18017488718032837,258.01080322265625,-0.007162063382565975
4591283.734,1496,1490,634015067,219.27,103151507,-0.19365042448043823,-0.16585461795330048,258.0335388183594,-0.010258029215037823
4591383.734,1496,1490,634015067,219.27,103151507,-0.20662885904312134,-0.1785466969013214,258.05023193359375,-0.012265829369425774
4591483.734,1496,1490,634015066,219.24,103151485,-0.19181255996227264,-0.16076159477233887,258.05706787109375,-0.0141042685136199
4591583.734,1496,1490,634015066,219.24,103151485,-0.15481199324131012,-0.14712342619895935,258.0865173339844,-0.014891495928168297
4591683.734,1496,1490,634015064,219.23,103151464,-0.11607811599969864,-0.15603934228420258,258.1195983886719,-0.013353366404771805
4591783.734,1496,1490,634015064,219.23,103151464,-0.06705832481384277,-0.1573081761598587,258.1741027832031,-0.008730996400117874
4591883.734,1496,1490,634015062,219.2,103151446,-0.0068617346696555614,-0.16183093190193176,258.2197265625,-0.004077104851603508
4591983.734,1496,1490,634015062,219.2,103151446,0.04198798909783363,-0.1678299456834793,258.2629699707031,-0.0018217405304312706
4592083.734,1496,1490,634015061,219.2,103151430,0.08260218799114227,-0.16878627240657806,258.3017578125,-0.0012566980440169573
4592183.734,1496,1490,634015061,219.2,103151430,0.09414608776569366,-0.15954741835594177,258.31427001953125,-0.001192083116620779
4592283.734,1496,1490,634015059,219.18,103151415,0.07121919840574265,-0.16355213522911072,258.30047607421875,0.0003231085720472038
4592383.734,1496,1490,634015059,219.18,103151415,0.025824790820479393,-0.17224235832691193,258.2881164550781,0.001239732257090509
4592483.734,1496,1490,634015058,219.18,103151399,-0.03323521465063095,-0.17618578672409058,258.2723388671875,-0.0012426025932654738
4592583.734,1496,1490,634015058,219.18,103151399,-0.11243768036365509,-0.16891591250896454,258.23077392578125,-0.005760620813816786
4592683.734,1496,1490,634015056,219.18,103151381,-0.1697126179933548,-0.1712181717157364,258.20953369140625,-0.009153059683740139
4592783.734,1496,1490,634015056,219.18,103151381,-0.192927286028862,-0.17249856889247894,258.1766662597656,-0.01133597083389759
4592883.734,1496,1490,634015054,219.18,103151364,-0.17340242862701416,-0.17183955013751984,258.19873046875,-0.012609079480171204
4592983.734,1496,1490,634015054,219.18,103151364,-0.12028108537197113,-0.16236066818237305,258.2449035644531,-0.013947677798569202
4593083.734,1496,1490,634015053,219.17,103151346,-0.06906932592391968,-0.16386917233467102,258.2732238769531,-0.013148616999387741
4593183.734,1496,1490,634015053,219.17,103151346,-0.02240927703678608,-0.15238580107688904,258.305908203125,-0.011454891413450241
4593283.734,1496,1490,634015052,219.16,103151331,0.024143066257238388,-0.15287743508815765,258.338134765625,-0.007722584065049887
4593383.734,1496,1490,634015052,219.16,103151331,0.06680678576231003,-0.1475732922554016,258.379638671875,-0.0025579866487532854
4593483.734,1496,1490,634015050,219.14,103151316,0.09593324363231659,-0.17110323905944824,258.4251708984375,0.0008915557409636676
4593583.734,1496,1490,634015050,219.14,103151316,0.08774330466985703,-0.18033148348331451,258.44842529296875,0.0008826212724670768
4593683.734,1496,1490,634015048,219.12,103151303,0.06549632549285889,-0.1622057557106018,258.43414306640625,0.00026490289019420743
4593783.734,1496,1490,634015048,219.12,103151303,0.022838514298200607,-0.149990051984787,258.435791015625,-0.00022277949028648436
4593883.734,1496,1490,634015047,219.11,103151290,0.00012728228466585279,-0.13529014587402344,258.42724609375,0.00031712991767562926
4593983.734,1496,1490,634015047,219.11,103151290,-0.03638608381152153,-0.14631257951259613,258.4268798828125,0.000019284398149466142
4594083.734,1496,1490,634015046,219.11,103151277,-0.08036161959171295,-0.16449543833732605,258.427978515625,-0.0027629872784018517
4594183.734,1496,1490,634015046,219.11,103151277,-0.1127822995185852,-0.17292508482933044,258.4058837890625,-0.006984478794038296
4594283.734,1496,1490,634015044,219.1,103151262,-0.10804048180580139,-0.1908968985080719,258.40631103515625,-0.010146595537662506
4594383.734,1496,1490,634015044,219.1,103151262,-0.09853734821081161,-0.18290552496910095,258.4269714355469,-0.010138072073459625
4594483.734,1496,1490,634015043,219.1,103151248,-0.06608448177576065,-0.18337368965148926,258.4767150878906,-0.008520946837961674
4594583.734,1496,1490,634015043,219.1,103151248,-0.02718798629939556,-0.16723637282848358,258.52252197265625,-0.007073855958878994
4594683.734,1496,1490,634015041,219.09,103151234,0.006660893559455872,-0.15125082433223724,258.5975036621094,-0.005429315846413374
4594783.734,1496,1490,634015041,219.09,103151234,0.03173072263598442,-0.137379989027977,258.654541015625,-0.002822518115863204
4594883.734,1496,1490,634015040,219.07,103151222,0.05033201724290848,-0.1475183367729187,258.72381591796875,0.0013569595757871866
4594983.734,1496,1490,634015040,219.07,103151222,0.05790933221578598,-0.15401770174503326,258.8001403808594,0.004893625620752573
4595083.734,1496,1490,634015038,219.05,103151211,0.07132411748170853,-0.15152135491371155,258.8220520019531,0.0044934749603271484
4595183.734,1496,1490,634015038,219.05,103151211,0.05377441272139549,-0.1607857495546341,258.80926513671875,0.0005068465834483504
4595283.734,1496,1490,634015037,219.04,103151200,0.03017292730510235,-0.1538834273815155,258.80474853515625,-0.0040703341364860535
4595383.734,1496,1490,634015037,219.04,103151200,0.010615907609462738,-0.1615704596042633,258.7735900878906,-0.006732898764312267
4595483.734,1496,1490,634015036,219.04,103151188,-0.018396511673927307,-0.16608428955078125,258.7310485839844,-0.008759536780416965
4595583.734,1496,1490,634015036,219.04,103151188,-0.034359563142061234,-0.18047137558460236,258.68853759765625,-0.0108248982578516
4595683.734,1496,1490,634015036,219.05,103151175,-0.05614461749792099,-0.19715049862861633,258.65484619140625,-0.013657404109835625
4595783.734,1496,1490,634015036,219.05,103151175,-0.07230796664953232,-0.206048384308815,258.6500244140625,-0.01598677784204483
4595883.734,1496,1490,634015034,219.03,103151162,-0.07960531115531921,-0.19741609692573547,258.62506103515625,-0.016888823360204697
4595983.734,1496,1490,634015034,219.03,103151162,-0.07294224202632904,-0.17892774939537048,258.621337890625,-0.015024552121758461
4596083.734,1496,1490,634015033,219.01,103151152,-0.048443205654621124,-0.16039730608463287,258.61767578125,-0.012279815040528774
4596183.734,1496,1490,634015033,219.01,103151152,0.0025370516814291477,-0.13659372925758362,258.6571960449219,-0.008082456886768341
4596283.734,1496,1490,634015032,218.99,103151141,0.04712321609258652,-0.12517781555652618,258.70513916015625,-0.0026008114218711853
4596383.734,1496,1490,634015032,218.99,103151141,0.09571050107479095,-0.123956099152565,258.7547912597656,0.0018572986591607332
4596483.734,1496,1490,634015031,218.97,103151132,0.10863186419010162,-0.12573087215423584,258.8020324707031,0.0048526800237596035
4596583.734,1496,1490,634015031,218.97,103151132,0.10277572274208069,-0.14036934077739716,258.85296630859375,0.00522969663143158
4596683.734,1496,1490,634015030,218.94,103151123,0.053444091230630875,-0.14784187078475952,258.8536071777344,0.0028501914348453283
4596783.734,1496,1490,634015030,218.94,103151123,-0.00802009180188179,-0.17489422857761383,258.84393310546875,-0.0011099255643785
4596883.734,1496,1490,634015029,218.93,103151113,-0.0672302395105362,-0.19017070531845093,258.8102722167969,-0.005385886412113905
4596983.734,1496,1490,634015029,218.93,103151113,-0.09179052710533142,-0.19810083508491516,258.7850646972656,-0.007720310240983963
4597083.734,1496,1490,634015028,218.91,103151103,-0.11302601546049118,-0.19603577256202698,258.77777099609375,-0.007052708882838488
4597183.734,1496,1490,634015028,218.91,103151103,-0.09372049570083618,-0.17607788741588593,258.82220458984375,-0.004066296853125095
4597283.734,1496,1490,634015026,218.89,103151092,-0.05886625498533249,-0.16281220316886902,258.892822265625,-0.0008793630986474454
4597383.734,1496,1490,634015026,218.89,103151092,-0.029987510293722153,-0.14848008751869202,258.992919921875,0.0023990594781935215
4597483.734,1496,1490,634015025,218.87,103151083,0.018354633823037148,-0.13324016332626343,259.08642578125,0.0077230436727404594
4597583.734,1496,1490,634015025,218.87,103151083,0.058975353837013245,-0.12408800423145294,259.23077392578125,0.013756060972809792
4597683.734,1496,1490,634015024,218.85,103151075,0.0871247798204422,-0.10666193068027496,259.4006652832031,0.01928872987627983
4597783.734,1496,1490,634015024,218.85,103151075,0.0959150493144989,-0.10212162137031555,259.5661926269531,0.022663790732622147
4597883.734,1496,1490,634015023,218.83,103151067,0.09201689064502716,-0.12274747341871262,259.69622802734375,0.022417694330215454
4597983.734,1496,1490,634015023,218.83,103151067,0.06411946564912796,-0.16181297600269318,259.75067138671875,0.0176660418510437
4598083.734,1496,1490,634015021,218.81,103151058,0.008241388946771622,-0.18150211870670319,259.79290771484375,0.010961512103676796
4598183.734,1496,1490,634015021,218.81,103151058,-0.040682606399059296,-0.20139198005199432,259.81927490234375,0.006685333792120218
4598283.734,1496,1490,634015021,218.8,103151049,-0.08769428730010986,-0.19371037185192108,259.85955810546875,0.005447697825729847
4598383.734,1496,1490,634015021,218.8,103151049,-0.1174311563372612,-0.18488828837871552,259.9383544921875,0.007472272031009197
4598483.734,1496,1490,634015020,218.79,103151041,-0.09441356360912323,-0.17397305369377136,260.05035400390625,0.010401567444205284
4598583.734,1496,1490,634015020,218.79,103151041,-0.044802963733673096,-0.1630258858203888,260.1801452636719,0.012983560562133789
4598683.734,1496,1490,634015019,218.77,103151033,0.004609924275428057,-0.13901971280574799,260.33123779296875,0.014645680785179138
4598783.734,1496,1490,634015019,218.77,103151033,0.04947924613952637,-0.11890475451946259,260.5062561035156,0.018676256760954857
4598883.734,1496,1490,634015018,218.75,103151025,0.08325622975826263,-0.0976271778345108,260.7174377441406,0.025018341839313507
4598983.734,1496,1490,634015018,218.75,103151025,0.10504260659217834,-0.09677210450172424,260.92034912109375,0.03070763684809208
4599083.734,1496,1490,634015017,218.73,103151018,0.11549557000398636,-0.11988625675439835,261.0902404785156,0.03304663300514221
4599183.734,1496,1490,634015017,218.73,103151018,0.08567706495523453,-0.148747056722641,261.215576171875,0.030135691165924072
4599283.734,1496,1490,634015016,218.71,103151011,0.04269559681415558,-0.17050738632678986,261.2937316894531,0.02313486859202385
4599383.734,1496,1490,634015016,218.71,103151011,-0.01583625003695488,-0.19273026287555695,261.36553955078125,0.014934558421373367
4599483.734,1496,1490,634015015,218.69,103151003,-0.06913798302412033,-0.20104876160621643,261.4081726074219,0.007906683720648289
4599583.734,1496,1490,634015015,218.69,103151003,-0.11020181328058243,-0.1951007843017578,261.482177734375,0.005453223362565041
4599683.734,1496,1490,634015014,218.68,103150996,-0.11525949090719223,-0.18213540315628052,261.586181640625,0.008278652094304562
4599783.734,1496,1490,634015014,218.68,103150996,-0.08322498947381973,-0.16077330708503723,261.7701110839844,0.015016264282166958
4599883.734,1496,1490,634015013,218.66,103150988,-0.0144714480265975,-0.14331181347370148,261.97705078125,0.021894194185733795
4599983.734,1496,1490,634015013,218.66,103150988,0.056243062019348145,-0.11083370447158813,262.19415283203125,0.027661679312586784
4600083.734,1496,1490,634015012,218.64,103150981,0.13123472034931183,-0.10360103100538254,262.3836975097656,0.030175501480698586
4600183.734,1496,1490,634015012,218.64,103150981,0.1539955735206604,-0.10718218982219696,262.5574035644531,0.030282037332654
4600283.734,1496,1490,634015011,218.62,103150975,0.1369977444410324,-0.11969198286533356,262.6914978027344,0.028334081172943115
4600383.734,1496,1490,634015011,218.62,103150975,0.07558351755142212,-0.14048399031162262,262.8105163574219,0.026294339448213577
4600483.734,1496,1490,634015010,218.6,103150968,0.009008051827549934,-0.17363008856773376,262.90948486328125,0.02322404645383358
4600583.734,1496,1490,634015010,218.6,103150968,-0.042092133313417435,-0.19819608330726624,262.990966796875,0.01841699704527855
4600683.734,1496,1490,634015010,218.58,103150960,-0.08834779262542725,-0.19949942827224731,263.0428771972656,0.013268528506159782
4600783.734,1496,1490,634015010,218.58,103150960,-0.11325661838054657,-0.19680853188037872,263.1331787109375,0.009861890226602554
4600883.734,1496,1490,634015010,218.58,103150953,-0.11103116720914841,-0.18943439424037933,263.251953125,0.010451539419591427
4600983.734,1496,1490,634015010,218.58,103150953,-0.058443352580070496,-0.16551543772220612,263.40118408203125,0.015040644444525242
4601083.734,1496,1490,634015010,218.57,103150946,0.005991450045257807,-0.12394023686647415,263.586669921875,0.021865516901016235
4601183.734,1496,1490,634015010,218.57,103150946,0.08840170502662659,-0.08777353167533875,263.801513671875,0.028839467093348503
4601283.734,1496,1490,634015009,218.55,103150940,0.16053506731987,-0.09352666884660721,264.00762939453125,0.03357311710715294
4601383.734,1496,1490,634015009,218.55,103150940,0.1797683984041214,-0.1190335676074028,264.15313720703125,0.032094139605760574
4601483.734,1496,1490,634015009,218.54,103150934,0.12509652972221375,-0.14649906754493713,264.2801513671875,0.026615332812070847
4601583.734,1496,1490,634015009,218.54,103150934,0.04539879411458969,-0.164487823843956,264.3691101074219,0.020124247297644615
4601683.734,1496,1490,634015009,218.53,103150928,-0.024921294301748276,-0.19785988330841064,264.42779541015625,0.014901104383170605
4601783.734,1496,1490,634015009,218.53,103150928,-0.08151838183403015,-0.21728552877902985,264.4787292480469,0.01072523184120655
4601883.734,1496,1490,634015009,218.52,103150921,-0.12115226686000824,-0.20335900783538818,264.547607421875,0.008348505012691021
4601983.734,1496,1490,634015009,218.52,103150921,-0.11698160320520401,-0.17985108494758606,264.67108154296875,0.009963750839233398
4602083.734,1496,1490,634015009,218.51,103150914,-0.058224160224199295,-0.1497657150030136,264.8108825683594,0.014697527512907982
4602183.734,1496,1490,634015009,218.51,103150914,0.022484702989459038,-0.12533898651599884,264.9827880859375,0.020274542272090912
4602283.734,1496,1490,634015008,218.51,103150908,0.10408642143011093,-0.11266428232192993,265.1601867675781,0.024268686771392822
4602383.734,1496,1490,634015008,218.51,103150908,0.14687533676624298,-0.1023896262049675,265.3393859863281,0.02608102187514305
4602483.734,1496,1490,634015009,218.5,103150902,0.14706146717071533,-0.11881153285503387,265.47747802734375,0.02655375562608242
4602583.734,1496,1490,634015009,218.5,103150902,0.11127273738384247,-0.14300978183746338,265.57421875,0.024571936577558517
4602683.734,1496,1490,634015009,218.49,103150896,0.044188227504491806,-0.1737775355577469,265.6293029785156,0.01994282379746437
4602783.734,1496,1490,634015009,218.49,103150896,-0.036950625479221344,-0.19519498944282532,265.6722412109375,0.014886567369103432
4602883.734,1496,1490,634015010,218.49,103150890,-0.0884145125746727,-0.2014027237892151,265.7251892089844,0.01209610141813755
4602983.734,1496,1490,634015010,218.49,103150890,-0.09768351912498474,-0.20377236604690552,265.77587890625,0.012327136471867561
4603083.734,1496,1490,634015009,218.48,103150883,-0.07685354351997375,-0.17929628491401672,265.87310791015625,0.013493453152477741
4603183.734,1496,1490,634015009,218.48,103150883,-0.025571323931217194,-0.14279374480247498,266.0145263671875,0.015298970974981785
4603283.734,1496,1490,634015010,218.48,103150877,0.04165101796388626,-0.11504656821489334,266.1543273925781,0.01910201460123062
4603383.734,1496,1490,634015010,218.48,103150877,0.10444438457489014,-0.10457885265350342,266.3237609863281,0.02422560565173626
4603483.734,1496,1490,634015010,218.48,103150871,0.1374904215335846,-0.12180405110120773,266.4724426269531,0.025489170104265213
4603583.734,1496,1490,634015010,218.48,103150871,0.12934300303459167,-0.14710620045661926,266.59124755859375,0.02184957265853882
4603683.734,1496,1490,634015010,218.48,103150866,0.07884816080331802,-0.1739964634180069,266.6414794921875,0.01590896211564541
4603783.734,1496,1490,634015010,218.48,103150866,0.008700305595993996,-0.1935742050409317,266.6925354003906,0.011248815804719925
4603883.734,1496,1490,634015010,218.47,103150860,-0.055341314524412155,-0.20325841009616852,266.7160949707031,0.008602360263466835
4603983.734,1496,1490,634015010,218.47,103150860,-0.09509944170713425,-0.1894974559545517,266.76751708984375,0.00928618386387825
4604083.734,1496,1490,634015011,218.47,103150854,-0.0779276117682457,-0.1619408279657364,266.8519592285156,0.011395502835512161
4604183.734,1496,1490,634015011,218.47,103150854,-0.016034241765737534,-0.139445960521698,266.9651184082031,0.012867203913629055
4604283.734,1496,1490,634015011,218.47,103150848,0.05080511048436165,-0.122540183365345,267.06610107421875,0.014003855176270008
4604383.734,1496,1490,634015011,218.47,103150848,0.0994010716676712,-0.12462674826383591,267.18414306640625,0.015834417194128036
4604483.734,1496,1490,634015011,218.45,103150844,0.12291991710662842,-0.1477423906326294,267.27880859375,0.016690099611878395
4604583.734,1496,1490,634015011,218.45,103150844,0.10460168868303299,-0.1686624139547348,267.3533630371094,0.014065828174352646
4604683.734,1496,1490,634015011,218.45,103150837,0.04580625891685486,-0.177766814827919,267.4012145996094,0.009537839330732822
4604783.734,1496,1490,634015011,218.45,103150837,-0.019381608814001083,-0.18765753507614136,267.4251708984375,0.005048986058682203
4604883.734,1496,1490,634015011,218.44,103150832,-0.06706950813531876,-0.18508829176425934,267.4697265625,0.00368803134188056
4604983.734,1496,1490,634015011,218.44,103150832,-0.058573924005031586,-0.1741560697555542,267.503662109375,0.004114051349461079
4605083.734,1496,1490,634015011,218.44,103150827,-0.01704040914773941,-0.15346696972846985,267.5389709472656,0.005740723572671413
4605183.734,1496,1490,634015011,218.44,103150827,0.04131746664643288,-0.13702407479286194,267.60882568359375,0.007607495412230492
4605283.734,1496,1490,634015011,218.42,103150822,0.08282335102558136,-0.13467612862586975,267.687255859375,0.009855866432189941
4605383.734,1496,1490,634015011,218.42,103150822,0.10456676036119461,-0.14965958893299103,267.7626647949219,0.011531388387084007
4605483.734,1496,1490,634015011,218.42,103150817,0.09581512957811356,-0.16584238409996033,267.79998779296875,0.009675218723714352
4605583.734,1496,1490,634015011,218.42,103150817,0.04818256199359894,-0.1907063126564026,267.7906799316406,0.003251809161156416
4605683.734,1496,1490,634015011,218.41,103150812,-0.008438656106591225,-0.1911899745464325,267.73919677734375,-0.003737232182174921
4605783.734,1496,1490,634015011,218.41,103150812,-0.056595928966999054,-0.1733914315700531,267.70892333984375,-0.006469056010246277
4605883.734,1496,1490,634015011,218.4,103150807,-0.06054278463125229,-0.1707841157913208,267.7007141113281,-0.0037046922370791435
4605983.734,1496,1490,634015011,218.4,103150807,-0.00714490981772542,-0.16787466406822205,267.74102783203125,-0.00022042579075787216
4606083.734,1496,1490,634015011,218.39,103150802,0.05270857363939285,-0.1482318639755249,267.7801513671875,0.001685739727690816
4606183.734,1496,1490,634015011,218.39,103150802,0.09260434657335281,-0.1419631540775299,267.8206787109375,0.0019031125120818615
4606283.734,1496,1490,634015012,218.39,103150797,0.093046635389328,-0.1463094800710678,267.8172302246094,0.000386404397431761
4606383.734,1496,1490,634015012,218.39,103150797,0.06562919169664383,-0.17013593018054962,267.7869873046875,-0.002693705027922988
4606483.734,1496,1490,634015012,218.38,103150792,0.031550172716379166,-0.19172435998916626,267.7496643066406,-0.006775163114070892
4606583.734,1496,1490,634015012,218.38,103150792,-0.007998961955308914,-0.19381222128868103,267.68048095703125,-0.012196656316518784
4606683.734,1496,1490,634015011,218.36,103150787,-0.03684825450181961,-0.17649957537651062,267.5687255859375,-0.015743475407361984
4606783.734,1496,1490,634015011,218.36,103150787,-0.033998891711235046,-0.16032108664512634,267.49798583984375,-0.014577876776456833
4606883.734,1496,1490,634015012,218.36,103150783,-0.0015327478758990765,-0.1645624339580536,267.4796142578125,-0.009215770289301872
4606983.734,1496,1490,634015012,218.36,103150783,0.05878676101565361,-0.16385018825531006,267.44500732421875,-0.004875702317804098
4607083.734,1496,1490,634015011,218.35,103150778,0.09776536375284195,-0.16372433304786682,267.4040222167969,-0.0063444082625210285
4607183.734,1496,1490,634015011,218.35,103150778,0.08689503371715546,-0.14850781857967377,267.3384704589844,-0.011125031858682632
4607283.734,1496,1490,634015012,218.35,103150772,0.045197345316410065,-0.16111403703689575,267.2426452636719,-0.01580083556473255
4607383.734,1496,1490,634015012,218.35,103150772,-0.0052139596082270145,-0.18895815312862396,267.1417236328125,-0.018385164439678192
4607483.734,1496,1490,634015011,218.32,103150767,-0.028419246897101402,-0.21054457128047943,267.0294189453125,-0.019693434238433838
4607583.734,1496,1490,634015011,218.32,103150767,-0.01911577396094799,-0.18971744179725647,266.9309997558594,-0.021426236256957054
4607683.734,1496,1490,634015010,218.31,103150764,0.00465318001806736,-0.15302994847297668,266.8333435058594,-0.02004827931523323
4607783.734,1496,1490,634015010,218.31,103150764,0.05294976383447647,-0.1299741119146347,266.7684326171875,-0.015214323997497559
4607883.734,1496,1490,634015010,218.29,103150759,0.10690459609031677,-0.13840697705745697,266.71759033203125,-0.011301045306026936
4607983.734,1496,1490,634015010,218.29,103150759,0.10704025626182556,-0.16114428639411926,266.6507873535156,-0.01293120812624693
4608083.734,1496,1490,634015009,218.28,103150754,0.051744118332862854,-0.17159423232078552,266.5179748535156,-0.01913931407034397
4608183.734,1496,1490,634015009,218.28,103150754,-0.018706707283854485,-0.1926257461309433,266.3511962890625,-0.024125974625349045
4608283.734,1496,1490,634015009,218.27,103150749,-0.06470627337694168,-0.2086486518383026,266.20611572265625,-0.025893982499837875
4608383.734,1496,1490,634015009,218.27,103150749,-0.05812409520149231,-0.2049444615840912,266.0712890625,-0.02493884786963463
4608483.734,1496,1490,634015009,218.26,103150745,0.0024286052212119102,-0.17607370018959045,265.95281982421875,-0.023389972746372223
4608583.734,1496,1490,634015009,218.26,103150745,0.07520832866430283,-0.12079358100891113,265.85467529296875,-0.021488007158041
4608683.734,1496,1490,634015009,218.24,103150740,0.13327008485794067,-0.09897344559431076,265.75836181640625,-0.018148286268115044
4608783.734,1496,1490,634015009,218.24,103150740,0.13527502119541168,-0.11732783168554306,265.6636657714844,-0.01480154786258936
4608883.734,1496,1490,634015009,218.23,103150735,0.0801650732755661,-0.18255941569805145,265.5435791015625,-0.01485716924071312
4608983.734,1496,1490,634015009,218.23,103150735,-0.002701403573155403,-0.2342117875814438,265.3496398925781,-0.021006237715482712
4609083.734,1496,1490,634015009,218.23,103150730,-0.07415729016065598,-0.23743852972984314,265.1452331542969,-0.03023485839366913
4609183.734,1496,1490,634015009,218.23,103150730,-0.10119142383337021,-0.20346058905124664,264.958984375,-0.03501304239034653
4609283.734,1496,1479,634015009,218.23,103150725,-0.05246938019990921,-0.16159844398498535,264.82769775390625,-0.031214412301778793
4609383.734,1496,1476,634015009,218.23,103150725,0.06261994689702988,-0.11908426135778427,264.75738525390625,-0.02283412590622902
4609483.734,1496,1476,634015009,218.22,103150721,0.15223757922649384,-0.08927886933088303,264.7006530761719,-0.01648370921611786
4609583.734,1496,1476,634015009,218.22,103150721,0.1714179962873459,-0.10682018846273422,264.6169128417969,-0.014042727649211884
4609683.734,1496,1476,634015009,218.2,103150717,0.08783935755491257,-0.1702880710363388,264.48272705078125,-0.01690587028861046
4609783.734,1496,1476,634015009,218.2,103150717,-0.016141146421432495,-0.2351858764886856,264.3079833984375,-0.023143460974097252
4609883.734,1496,1476,634015009,218.2,103150712,-0.09586644917726517,-0.2637513279914856,264.1195068359375,-0.030632954090833664
4609983.734,1496,1476,634015009,218.2,103150712,-0.09648004919290543,-0.23280538618564606,263.9278564453125,-0.035116564482450485
4610083.734,1496,1476,634015009,218.19,103150708,-0.030576840043067932,-0.15230852365493774,263.77044677734375,-0.034310389310121536
4610183.734,1496,1476,634015009,218.19,103150708,0.06598605215549469,-0.08851249516010284,263.6646728515625,-0.027642231434583664
4610283.734,1496,1476,634015008,218.18,103150704,0.1538337916135788,-0.08251133561134338,263.5808410644531,-0.018184322863817215
4610383.734,1496,1476,634015008,218.18,103150704,0.16350215673446655,-0.12727320194244385,263.4991455078125,-0.0124136907979846
4610483.734,1496,1476,634015008,218.17,103150698,0.08016639947891235,-0.19292521476745605,263.3768005371094,-0.015448987483978271
4610583.734,1496,1476,634015008,218.17,103150698,-0.04302690178155899,-0.2406865507364273,263.18670654296875,-0.024872098118066788
4610683.734,1496,1476,634015008,218.17,103150695,-0.1160716637969017,-0.24261732399463654,262.98956298828125,-0.03275294229388237
4610783.734,1496,1476,634015008,218.17,103150695,-0.09632657468318939,-0.20902881026268005,262.8094482421875,-0.035965509712696075
4610883.734,1496,1476,634015008,218.16,103150690,0.0011689887614920735,-0.14803501963615417,262.64422607421875,-0.03524991497397423
4610983.734,1496,1476,634015008,218.16,103150690,0.11430176347494125,-0.08803098648786545,262.53289794921875,-0.029230251908302307
4611083.734,1496,1476,634015007,218.15,103150686,0.170615553855896,-0.079623743891716,262.459716796875,-0.020033497363328934
4611183.734,1496,1476,634015007,218.15,103150686,0.14073704183101654,-0.12719368934631348,262.3861389160156,-0.012610334903001785
4611283.734,1496,1476,634015007,218.13,103150681,0.03823355585336685,-0.20612172782421112,262.262939453125,-0.012393917888402939
4611383.734,1496,1476,634015007,218.13,103150681,-0.05895218253135681,-0.25919875502586365,262.07330322265625,-0.02048022300004959
4611483.734,1496,1476,634015007,218.13,103150677,-0.10728675872087479,-0.24066901206970215,261.8442687988281,-0.03261034935712814
4611583.734,1496,1476,634015007,218.13,103150677,-0.083078533411026,-0.18275125324726105,261.6257629394531,-0.04193563386797905
4611683.734,1496,1476,634015006,218.13,103150674,0.008989071473479271,-0.11492444574832916,261.4676208496094,-0.04093540459871292
4611783.734,1496,1476,634015006,218.13,103150674,0.10738028585910797,-0.0862535908818245,261.39959716796875,-0.028385939076542854
4611883.734,1496,1476,634015005,218.11,103150669,0.16423539817333221,-0.10442322492599487,261.36358642578125,-0.012983221560716629
4611983.734,1496,1476,634015005,218.11,103150669,0.13579633831977844,-0.15647149085998535,261.3017578125,-0.0064337728545069695
4612083.734,1496,1476,634015006,218.11,103150665,0.033029310405254364,-0.2121981978416443,261.1979675292969,-0.011988772079348564
4612183.734,1496,1476,634015006,218.11,103150665,-0.07472564280033112,-0.23988781869411469,261.0179748535156,-0.02487006038427353
4612283.734,1496,1476,634015006,218.11,103150661,-0.09692995995283127,-0.21853595972061157,260.77105712890625,-0.03645703196525574
4612383.734,1496,1476,634015006,218.11,103150661,-0.05381721630692482,-0.16685588657855988,260.5742492675781,-0.041493047028779984
4612483.734,1496,1474,634015005,218.11,103150657,0.041896846145391464,-0.11705145984888077,260.4622497558594,-0.037112876772880554
4612583.734,1496,1474,634015005,218.11,103150657,0.12897473573684692,-0.09431266039609909,260.41510009765625,-0.023572510108351707
4612683.734,1496,1474,634015004,218.1,103150653,0.14928628504276276,-0.11736208200454712,260.39971923828125,-0.009287438355386257
4612783.734,1496,1473,634015004,218.1,103150653,0.08631037920713425,-0.17482265830039978,260.3457946777344,-0.004835192579776049