timestamp(ms),RCIN.C1,RCIN.C3,GPS.Lat,GPS.Alt,GPS.Lng,IMU.AccX,IMU.AccY,DCM.Yaw,IMU.GyrZ
4805022.794,1489,1479,634015942,217.89,103157211,0.04084490239620209,-0.16406568884849548,252.67257690429688,0.004135709721595049
4805122.794,1489,1479,634015942,217.89,103157211,0.03172094374895096,-0.16216042637825012,252.72122192382812,0.004355173092335463
4805222.794,1489,1479,634015942,217.88,103157211,0.025434261187911034,-0.16462188959121704,252.76490783691406,0.003994280938059092
4805322.794,1489,1479,634015942,217.88,103157211,0.01636270247399807,-0.15930955111980438,252.81103515625,0.004097307100892067
4805422.794,1489,1479,634015943,217.89,103157213,0.025480324402451515,-0.1455649733543396,252.83702087402344,0.0043822284787893295
4805522.794,1489,1479,634015943,217.89,103157213,0.033839717507362366,-0.15613529086112976,252.87644958496094,0.004718305543065071
4805622.794,1489,1479,634015943,217.89,103157213,0.039502158761024475,-0.16263309121131897,252.90554809570312,0.004218112211674452
4805722.794,1489,1479,634015944,217.88,103157215,0.04146822914481163,-0.16477233171463013,252.92919921875,0.0034384173341095448
4805822.794,1489,1479,634015945,217.88,103157216,0.04053005576133728,-0.16634972393512726,252.94345092773438,0.003700174391269684
4805922.794,1489,1479,634015945,217.88,103157216,0.03704988211393356,-0.1637602299451828,252.96563720703125,0.004215855151414871
4806022.794,1489,1479,634015945,217.88,103157216,0.029609324410557747,-0.15376131236553192,253.0028839111328,0.004728306084871292
4806122.794,1489,1479,634015945,217.87,103157218,0.0254066064953804,-0.16006925702095032,253.02706909179688,0.004355772398412228
4806222.794,1489,1479,634015945,217.87,103157219,0.028589872643351555,-0.16453145444393158,253.06854248046875,0.003969276323914528
4806322.794,1489,1479,634015945,217.87,103157219,0.024365879595279694,-0.15757602453231812,253.10414123535156,0.004150447901338339
4806422.794,1489,1479,634015945,217.87,103157219,0.042607977986335754,-0.162894606590271,253.15594482421875,0.004725892096757889
4806522.794,1489,1479,634015945,217.87,103157220,0.02751513570547104,-0.16158203780651093,253.19384765625,0.004931180737912655
4806622.794,1489,1479,634015945,217.87,103157220,0.04197147488594055,-0.15526029467582703,253.20291137695312,0.00430819159373641
4806722.794,1489,1479,634015946,217.88,103157222,0.03143574297428131,-0.15992824733257294,253.23751831054688,0.0038363339845091105
4806822.794,1489,1479,634015945,217.87,103157223,0.030869927257299423,-0.16132418811321259,253.29539489746094,0.004066819790750742
4806922.794,1489,1479,634015945,217.87,103157223,0.0253974087536335,-0.16397355496883392,253.34263610839844,0.005061233416199684
4807022.794,1489,1479,634015946,217.87,103157224,0.03599052131175995,-0.1585094928741455,253.396240234375,0.0052408380433917046
4807122.794,1489,1479,634015946,217.87,103157224,0.029938984662294388,-0.16169992089271545,253.43972778320312,0.0046917591243982315
4807222.794,1489,1479,634015945,217.86,103157227,0.03709281608462334,-0.158406600356102,253.47486877441406,0.004357530735433102
4807322.794,1489,1479,634015945,217.86,103157227,0.036914974451065063,-0.15166498720645905,253.51507568359375,0.004669089801609516
4807422.794,1489,1479,634015945,217.86,103157228,0.03741997480392456,-0.15669916570186615,253.54708862304688,0.005129985511302948
4807522.794,1489,1480,634015945,217.86,103157228,0.031650036573410034,-0.15756316483020782,253.59133911132812,0.004461733158677816
4807622.794,1489,1480,634015945,217.86,103157228,0.029552673920989037,-0.1656068116426468,253.63125610351562,0.003928226884454489
4807722.794,1489,1481,634015945,217.84,103157229,0.027675509452819824,-0.1692819893360138,253.65567016601562,0.0046610161662101746
4807822.794,1489,1493,634015945,217.84,103157229,0.03770236670970917,-0.1650499403476715,253.66494750976562,0.00542196910828352
4807922.794,1489,1500,634015945,217.83,103157230,0.0297099556773901,-0.15944162011146545,253.71743774414062,0.005425012670457363
4808022.794,1489,1500,634015945,217.83,103157230,0.040266361087560654,-0.1581031233072281,253.7563934326172,0.004882363602519035
4808122.794,1489,1500,634015945,217.82,103157230,0.030592476949095726,-0.16519209742546082,253.80160522460938,0.004547221586108208
4808222.794,1489,1500,634015945,217.82,103157231,0.03324268385767937,-0.1561012715101242,253.85910034179688,0.004738262854516506
4808322.794,1489,1506,634015945,217.82,103157231,0.03301422670483589,-0.1612875759601593,253.90267944335938,0.005014478228986263
4808422.794,1489,1510,634015945,217.82,103157231,0.032767049968242645,-0.1538807451725006,253.96279907226562,0.005574128590524197
4808522.794,1489,1515,634015944,217.8,103157232,0.033466488122940063,-0.15421627461910248,253.99740600585938,0.00526466267183423
4808622.794,1489,1518,634015944,217.8,103157232,0.029837727546691895,-0.16178679466247559,254.01806640625,0.004514049738645554
4808722.794,1488,1520,634015944,217.8,103157233,0.02993675135076046,-0.16516101360321045,254.05653381347656,0.004615985322743654
4808822.794,1488,1525,634015944,217.8,103157233,0.03142131119966507,-0.16542553901672363,254.09393310546875,0.005120099522173405
4808922.794,1488,1526,634015944,217.79,103157234,0.03688237443566322,-0.1638273000717163,254.15963745117188,0.005406782031059265
4809022.794,1488,1530,634015944,217.79,103157234,0.028994018211960793,-0.15938860177993774,254.1861572265625,0.005465404130518436
4809122.794,1488,1792,634015945,217.78,103157236,0.11209098994731903,-0.15184512734413147,254.21395874023438,0.0054107243195176125
4809222.794,1488,1900,634015945,217.78,103157236,0.5384690761566162,-0.14553005993366241,254.27493286132812,0.003248239401727915
4809322.794,1488,1900,634015945,217.78,103157235,0.6520319581031799,-0.14175894856452942,254.36474609375,0.004555620718747377
4809422.794,1488,1900,634015945,217.78,103157235,1.8195419311523438,-0.16160407662391663,254.4105224609375,0.004003310576081276
4809522.794,1488,1900,634015944,217.78,103157225,4.513097763061523,-0.19809387624263763,254.43850708007812,-0.005450667813420296
4809622.794,1488,1900,634015944,217.78,103157225,5.625826835632324,-0.20231285691261292,254.46835327148438,-0.015242524445056915
4809722.794,1482,1900,634015938,217.83,103157183,5.63040828704834,-0.1781771183013916,254.48434448242188,-0.01507296971976757
4809822.794,1480,1900,634015938,217.83,103157183,5.382098197937012,-0.16816240549087524,254.4751434326172,-0.015276847407221794
4809922.794,1480,1900,634015928,217.84,103157114,5.008004188537598,-0.2459157258272171,254.36083984375,-0.015359458513557911
4810022.794,1480,1900,634015928,217.84,103157114,4.398007392883301,-0.305724173784256,254.16677856445312,-0.023950256407260895
4810122.794,1480,1900,634015917,217.8,103157027,3.7155966758728027,-0.35817041993141174,253.8798828125,-0.03409291058778763
4810222.794,1479,1900,634015917,217.8,103157027,3.2167112827301025,-0.37398761510849,253.8798828125,-0.04623657092452049
4810322.794,1479,1900,634015903,217.78,103156929,3.033447742462158,-0.4126959443092346,253.70469665527344,-0.048787590116262436
4810422.794,1455,1900,634015903,217.78,103156929,2.891735315322876,-0.3297451436519623,253.5788116455078,-0.04496107995510101
4810522.794,1356,1900,634015887,217.78,103156826,2.8955183029174805,-0.4160447120666504,253.4886474609375,-0.04100719466805458
4810622.794,1207,1900,634015887,217.78,103156826,2.389225959777832,-0.6270103454589844,253.29873657226562,-0.051351115107536316
4810722.794,1100,1900,634015869,217.77,103156720,1.6364445686340332,-0.8319266438484192,252.70079040527344,-0.11179723590612411
4810822.794,1100,1900,634015869,217.77,103156720,0.9840574860572815,-1.0416147708892822,251.47113037109375,-0.20529106259346008
4810922.794,1100,1900,634015851,217.74,103156616,0.6475834846496582,-1.1361898183822632,249.93331909179688,-0.25904279947280884
4811022.794,1100,1900,634015851,217.74,103156616,0.5378870964050293,-1.1483618021011353,248.34829711914062,-0.27502012252807617
4811122.794,1100,1900,634015830,217.73,103156521,0.685066282749176,-1.0577800273895264,246.84947204589844,-0.27266067266464233
4811222.794,1100,1900,634015830,217.73,103156521,0.8189533948898315,-0.9733069539070129,245.39480590820312,-0.26890653371810913
4811322.794,1100,1900,634015807,217.74,103156431,0.8495709896087646,-0.9274308681488037,243.934814453125,-0.26695898175239563
4811422.794,1100,1900,634015807,217.74,103156431,0.8689456582069397,-0.9561503529548645,242.48135375976562,-0.27126845717430115
4811522.794,1100,1900,634015784,217.74,103156345,0.8526184558868408,-0.9605553150177002,240.9547576904297,-0.28053322434425354
4811622.794,1100,1900,634015784,217.74,103156345,0.9248524904251099,-1.0415210723876953,239.4173583984375,-0.2892969250679016
4811722.794,1100,1900,634015760,217.75,103156263,0.9227269291877747,-1.0551691055297852,237.88668823242188,-0.2882035970687866
4811822.794,1100,1900,634015760,217.75,103156263,1.0461515188217163,-0.9813693165779114,236.45416259765625,-0.2790238559246063
4811922.794,1100,1900,634015733,217.74,103156187,1.155822992324829,-0.9163469076156616,235.03797912597656,-0.2693929672241211
4812022.794,1100,1900,634015733,217.74,103156187,1.199690580368042,-0.9116846323013306,233.63604736328125,-0.2638349235057831
4812122.794,1100,1900,634015704,217.75,103156115,1.1843276023864746,-0.8903913497924805,232.2156982421875,-0.26279211044311523
4812222.794,1100,1900,634015704,217.75,103156115,1.124625563621521,-0.8545637130737305,230.7890625,-0.2638687193393707
4812322.794,1100,1900,634015674,217.73,103156046,1.0906676054000854,-0.8762614130973816,229.34674072265625,-0.2651571035385132
4812422.794,1100,1900,634015674,217.73,103156046,1.0980455875396729,-0.8758324384689331,227.95993041992188,-0.2602490484714508
4812522.794,1100,1900,634015644,217.73,103155982,1.1414892673492432,-0.838391900062561,226.62295532226562,-0.2548332214355469
4812622.794,1100,1900,634015644,217.73,103155982,1.2197896242141724,-0.919703483581543,225.27841186523438,-0.25316286087036133
4812722.794,1100,1900,634015612,217.73,103155923,1.280988335609436,-0.9519399404525757,223.85940551757812,-0.2596594989299774
4812822.794,1100,1900,634015612,217.73,103155923,1.2538162469863892,-0.9271417856216431,222.45309448242188,-0.26895642280578613
4812922.794,1100,1900,634015578,217.73,103155868,1.1988402605056763,-0.8729637265205383,220.99920654296875,-0.2704382538795471
4813022.794,1100,1900,634015578,217.73,103155868,1.2086347341537476,-0.973487377166748,219.5253143310547,-0.2689167261123657
4813122.794,1901,1900,634015544,217.72,103155817,0.06359505653381348,-0.5673498511314392,218.12884521484375,-0.26845651865005493
4813222.794,1901,1900,634015544,217.72,103155817,1.0212066173553467,0.6246145963668823,218.29544067382812,-0.023689668625593185
4813322.794,1901,1900,634015513,217.72,103155770,0.5183179378509521,0.7059054374694824,219.57093811035156,0.1992790549993515
4813422.794,1901,1900,634015513,217.72,103155770,1.2434887886047363,0.6306397318840027,221.30824279785156,0.28389522433280945
4813522.794,1901,1900,634015484,217.71,103155717,1.1208525896072388,0.7136112451553345,223.14768981933594,0.3059874176979065
4813622.794,1901,1900,634015484,217.71,103155717,1.3484272956848145,0.6643441915512085,224.83804321289062,0.2851283550262451
4813722.794,1901,1900,634015457,217.7,103155661,1.2119818925857544,0.2704929709434509,226.30430603027344,0.24947631359100342
4813822.794,1901,1900,634015457,217.7,103155661,1.3154833316802979,0.22898170351982117,227.60939025878906,0.21882981061935425
4813922.794,1901,1900,634015430,217.7,103155602,1.2705718278884888,0.17062008380889893,228.79330444335938,0.19921034574508667
4814022.794,1901,1900,634015430,217.7,103155602,1.27660071849823,0.14343483746051788,229.9584503173828,0.1920722872018814
4814122.794,1901,1900,634015404,217.7,103155541,1.2406803369522095,0.23363307118415833,231.1512451171875,0.19319303333759308
4814222.794,1901,1900,634015404,217.7,103155541,1.2176032066345215,0.320742666721344,232.35894775390625,0.1976388692855835
4814322.794,1901,1900,634015380,217.7,103155478,1.2062499523162842,0.3776506781578064,233.60498046875,0.20439937710762024
4814422.794,1901,1900,634015380,217.7,103155478,1.2193125486373901,0.34605681896209717,234.85714721679688,0.20822326838970184
4814522.794,1901,1900,634015358,217.7,103155413,1.232120394706726,0.2774556577205658,236.10528564453125,0.2084641456604004
4814622.794,1901,1900,634015358,217.7,103155413,1.1950891017913818,0.21909497678279877,237.31051635742188,0.20714227855205536
4814722.794,1901,1900,634015337,217.7,103155347,1.276064157485962,0.1679387092590332,238.527587890625,0.20516255497932434
4814822.794,1901,1900,634015337,217.7,103155347,1.2048876285552979,0.2450527846813202,239.7541961669922,0.2040049433708191
4814922.794,1901,1900,634015316,217.7,103155279,1.2626336812973022,0.1795298457145691,240.9490966796875,0.2044658213853836
4815022.794,1901,1900,634015316,217.7,103155279,1.2215238809585571,0.2906133532524109,242.15737915039062,0.20237001776695251
4815122.794,1901,1900,634015297,217.69,103155210,1.253223180770874,0.30248409509658813,243.39389038085938,0.2032858282327652
4815222.794,1901,1900,634015297,217.69,103155210,1.2967742681503296,0.22679206728935242,244.60531616210938,0.20390883088111877
4815322.794,1901,1900,634015280,217.69,103155139,1.2626399993896484,0.2642815113067627,245.77166748046875,0.20117726922035217
4815422.794,1901,1900,634015280,217.69,103155139,1.270723819732666,0.25541603565216064,246.92205810546875,0.1993533819913864
4815522.794,1901,1900,634015264,217.69,103155067,1.2400397062301636,0.20658260583877563,248.08792114257812,0.1980130970478058
4815622.794,1901,1900,634015264,217.69,103155067,1.2725977897644043,0.23207217454910278,249.26611328125,0.20037958025932312
4815722.794,1901,1900,634015250,217.69,103154993,1.2638883590698242,0.32068297266960144,250.44805908203125,0.2012999951839447
4815822.794,1901,1900,634015250,217.69,103154993,1.2671709060668945,0.2809971570968628,251.61798095703125,0.202915221452713
4815922.794,1901,1900,634015236,217.69,103154919,1.2649977207183838,0.2505406141281128,252.78480529785156,0.20264838635921478
4816022.794,1901,1900,634015236,217.69,103154919,1.279242753982544,0.22290080785751343,253.94580078125,0.2021748125553131
4816122.794,1901,1900,634015224,217.68,103154843,1.232669472694397,0.2795339822769165,255.11807250976562,0.2006036341190338
4816222.794,1901,1900,634015224,217.68,103154843,1.2927361726760864,0.21772953867912292,256.2890625,0.20107294619083405
4816322.794,1901,1900,634015213,217.68,103154768,1.2435957193374634,0.24241489171981812,257.4189453125,0.19750167429447174
4816422.794,1901,1900,634015213,217.68,103154768,1.2650067806243896,0.2942356765270233,258.52532958984375,0.1974344402551651
4816522.794,1901,1900,634015203,217.68,103154690,1.2648677825927734,0.26000386476516724,259.64508056640625,0.19654804468154907
4816622.794,1901,1900,634015203,217.68,103154690,1.3016424179077148,0.26700669527053833,260.76904296875,0.1978825330734253
4816722.794,1901,1900,634015196,217.67,103154612,1.2792128324508667,0.28581029176712036,261.90826416015625,0.19879066944122314
4816822.794,1901,1900,634015196,217.67,103154612,1.263781189918518,0.23799347877502441,263.04412841796875,0.19770695269107819
4816922.794,1901,1900,634015189,217.67,103154534,1.2798771858215332,0.2289220541715622,264.14764404296875,0.1967816799879074
4817022.794,1901,1900,634015189,217.67,103154534,1.2896363735198975,0.3001515567302704,265.2547912597656,0.19772124290466309
4817122.794,1901,1900,634015184,217.67,103154456,1.2650917768478394,0.23707252740859985,266.38128662109375,0.19776195287704468
4817222.794,1901,1900,634015184,217.67,103154456,1.3140848875045776,0.22271664440631866,267.4580383300781,0.1950228363275528
4817322.794,1901,1900,634015180,217.67,103154377,1.2762176990509033,0.2697916626930237,268.55548095703125,0.19373533129692078
4817422.794,1901,1900,634015178,217.67,103154298,1.256678581237793,0.21751277148723602,269.6336669921875,0.1923193633556366
4817522.794,1901,1900,634015178,217.67,103154298,1.249272346496582,0.21532513201236725,270.69158935546875,0.19114921987056732
4817622.794,1901,1900,634015178,217.67,103154298,1.267660140991211,0.21627335250377655,271.7579345703125,0.19123351573944092
4817722.794,1901,1900,634015177,217.66,103154220,1.248489260673523,0.25229930877685547,272.78302001953125,0.1907157003879547
4817822.794,1901,1900,634015177,217.67,103154142,1.339159607887268,0.20388033986091614,273.82647705078125,0.19299748539924622
4817922.794,1901,1900,634015177,217.67,103154142,1.3011945486068726,0.24081332981586456,274.86248779296875,0.19052055478096008
4818022.794,1901,1900,634015180,217.66,103154062,1.2693825960159302,0.2820647358894348,275.9241638183594,0.19294756650924683
4818122.794,1901,1900,634015180,217.66,103154062,1.277370810508728,0.21505331993103027,276.9826354980469,0.19523726403713226
4818222.794,1901,1900,634015182,217.67,103153983,1.27405846118927,0.2548850178718567,278.05657958984375,0.19422730803489685
4818322.794,1100,1900,634015182,217.67,103153983,2.807783603668213,-0.2661203145980835,278.9778747558594,0.17884135246276855
4818422.794,1100,1900,634015185,217.66,103153896,2.0104146003723145,-1.0070677995681763,278.40380859375,-0.06190015748143196
4818522.794,1100,1900,634015185,217.66,103153896,1.9777723550796509,-1.2221403121948242,276.5208435058594,-0.26197829842567444
4818622.794,1100,1900,634015185,217.66,103153896,1.597509741783142,-1.2040035724639893,274.5248107910156,-0.33446362614631653
4818722.794,1100,1900,634015183,217.66,103153806,1.5039911270141602,-1.2011308670043945,272.56524658203125,-0.34550905227661133
4818822.794,1100,1900,634015180,217.66,103153718,1.3817124366760254,-1.0581940412521362,270.7692565917969,-0.32102206349372864
4818922.794,1100,1900,634015180,217.66,103153718,1.3819819688796997,-0.8171160221099854,269.160400390625,-0.2878885269165039
4819022.794,1100,1900,634015180,217.66,103153718,1.3144638538360596,-0.632551908493042,267.7254333496094,-0.2564845383167267
4819122.794,1100,1900,634015174,217.65,103153628,1.3654189109802246,-0.5894116163253784,266.37677001953125,-0.2352825403213501
4819222.794,1100,1900,634015174,217.65,103153628,1.4317477941513062,-0.5942994952201843,265.06231689453125,-0.2280515730381012
4819322.794,1100,1900,634015167,217.65,103153540,1.421971321105957,-0.7316063642501831,263.6918029785156,-0.23275664448738098
4819422.794,1100,1900,634015158,217.65,103153452,1.3712818622589111,-0.8490008115768433,262.29156494140625,-0.24455323815345764
4819522.794,1100,1900,634015158,217.65,103153452,1.3312466144561768,-0.9143060445785522,260.8857727050781,-0.2491777539253235
4819622.794,1100,1900,634015158,217.65,103153452,1.3136279582977295,-0.8728446364402771,259.4576416015625,-0.25112807750701904
4819722.794,1100,1900,634015146,217.65,103153366,1.3325456380844116,-0.8088445067405701,258.0524597167969,-0.25127914547920227
4819822.794,1100,1900,634015132,217.64,103153280,1.3458060026168823,-0.8054219484329224,256.66790771484375,-0.24876759946346283
4819922.794,1100,1900,634015132,217.64,103153280,1.3449947834014893,-0.7878515720367432,255.26638793945312,-0.2484678328037262
4820022.794,1100,1900,634015117,217.64,103153197,1.336888074874878,-0.7524091601371765,253.87315368652344,-0.24968551099300385
4820122.794,1100,1900,634015117,217.64,103153197,1.3389235734939575,-0.8363671898841858,252.45657348632812,-0.25221818685531616
4820222.794,1100,1900,634015099,217.63,103153114,1.2744196653366089,-0.8335535526275635,251.05445861816406,-0.2549167275428772
4820322.794,1100,1900,634015099,217.63,103153114,1.2917639017105103,-0.7570999264717102,249.6371612548828,-0.2537652850151062
4820422.794,1100,1900,634015080,217.64,103153033,1.275215744972229,-0.8640861511230469,248.25567626953125,-0.24946214258670807
4820522.794,1100,1900,634015080,217.64,103153033,1.2797789573669434,-0.8217624425888062,246.9118194580078,-0.2448304295539856
4820622.794,1100,1900,634015080,217.64,103153033,1.2910231351852417,-0.7489717602729797,245.59078979492188,-0.24051077663898468
4820722.794,1100,1900,634015060,217.65,103152957,1.297874093055725,-0.7680273056030273,244.2744140625,-0.2412342131137848
4820822.794,1100,1900,634015038,217.65,103152881,1.2834951877593994,-0.7884566783905029,242.9380645751953,-0.24459800124168396
4820922.794,1100,1900,634015038,217.65,103152881,1.3229026794433594,-0.8301336765289307,241.57449340820312,-0.24557708203792572
4821022.794,1100,1900,634015038,217.65,103152881,1.3262403011322021,-0.8280246257781982,240.22018432617188,-0.2502148747444153
4821122.794,1100,1900,634015014,217.66,103152808,1.3037890195846558,-0.8513028621673584,238.8432159423828,-0.25116652250289917
4821222.794,1100,1900,634015014,217.66,103152808,1.316980242729187,-0.7815645337104797,237.46017456054688,-0.2510392367839813
4821322.794,1100,1900,634014987,217.63,103152739,1.3136963844299316,-0.7989456653594971,236.11920166015625,-0.2486685812473297
4821422.794,1100,1900,634014987,217.63,103152739,1.2913305759429932,-0.8057438135147095,234.7591552734375,-0.24524399638175964
4821522.794,1100,1900,634014959,217.63,103152674,1.2799057960510254,-0.7024170160293579,233.43087768554688,-0.24189844727516174
4821622.794,1100,1900,634014959,217.63,103152674,1.2639023065567017,-0.7733225226402283,232.12576293945312,-0.23901332914829254
4821722.794,1100,1900,634014930,217.64,103152610,1.3228625059127808,-0.7547811269760132,230.81906127929688,-0.23888365924358368
4821822.794,1100,1900,634014930,217.64,103152610,1.30546236038208,-0.7736003994941711,229.4984130859375,-0.24059244990348816
4821922.794,1100,1900,634014901,217.66,103152549,1.299596905708313,-0.7632434964179993,228.13401794433594,-0.24344584345817566
4822022.794,1100,1900,634014901,217.66,103152549,1.2879499197006226,-0.7838862538337708,226.76803588867188,-0.2442554235458374
4822122.794,1100,1900,634014870,217.66,103152492,1.3095786571502686,-0.7965785264968872,225.42332458496094,-0.24555152654647827
4822222.794,1100,1900,634014838,217.67,103152440,1.2932164669036865,-0.7582263946533203,224.09756469726562,-0.24580413103103638
4822322.794,1100,1900,634014838,217.67,103152440,1.2905086278915405,-0.7746297121047974,222.77685546875,-0.24358512461185455
4822422.794,1100,1900,634014838,217.67,103152440,1.3078672885894775,-0.7807344198226929,221.4840545654297,-0.2412998080253601
4822522.794,1100,1900,634014804,217.66,103152389,1.3186492919921875,-0.7597392797470093,220.2073211669922,-0.23919326066970825
4822622.794,1100,1900,634014804,217.66,103152389,1.3046917915344238,-0.7895492315292358,218.90931701660156,-0.23966971039772034
4822722.794,1100,1900,634014771,217.68,103152343,1.2791422605514526,-0.7509764432907104,217.60659790039062,-0.2409929782152176
4822822.794,1100,1900,634014771,217.68,103152343,1.305647611618042,-0.7716918587684631,216.3065185546875,-0.23982907831668854
4822922.794,1100,1900,634014737,217.71,103152300,1.3011455535888672,-0.8064836859703064,215.0286102294922,-0.2396540641784668
4823022.794,1100,1900,634014703,217.75,103152261,1.3059885501861572,-0.7804729342460632,213.75213623046875,-0.24101462960243225
4823122.794,1100,1900,634014703,217.75,103152261,1.2964073419570923,-0.7656130790710449,212.4334716796875,-0.24341115355491638
4823222.794,1100,1900,634014666,217.75,103152226,1.305803894996643,-0.8068941831588745,211.1112060546875,-0.24483826756477356
4823322.794,1100,1900,634014666,217.75,103152226,1.275231122970581,-0.7455864548683167,209.81362915039062,-0.24084869027137756
4823422.794,1100,1900,634014629,217.75,103152196,1.2612659931182861,-0.756037712097168,208.50723266601562,-0.2397078275680542
4823522.794,1100,1900,634014629,217.75,103152196,1.2954254150390625,-0.7914273142814636,207.22299194335938,-0.23864202201366425
4823622.794,1100,1900,634014629,217.75,103152196,1.2534990310668945,-0.7549211382865906,205.93116760253906,-0.23602846264839172
4823722.794,1100,1900,634014590,217.75,103152170,1.2917346954345703,-0.7284435033798218,204.6375274658203,-0.2348717451095581
4823822.794,1838,1900,634014590,217.75,103152170,0.6254758834838867,-0.5451911091804504,203.48123168945312,-0.2313561737537384
4823922.794,1901,1900,634014554,217.75,103152146,0.333795428276062,0.22128912806510925,203.82492065429688,-0.03763621672987938
4824022.794,1901,1900,634014554,217.75,103152146,1.0371071100234985,0.6272249221801758,205.101806640625,0.18160609900951385
4824122.794,1901,1900,634014520,217.76,103152120,0.9618394374847412,0.6902696490287781,206.74745178222656,0.26563408970832825
4824222.794,1901,1900,634014520,217.76,103152120,1.3092385530471802,0.504130482673645,208.40675354003906,0.2832959294319153
4824322.794,1901,1900,634014487,217.76,103152090,1.1928902864456177,0.5156259536743164,209.94447326660156,0.26945799589157104
4824422.794,1901,1900,634014455,217.76,103152054,1.3773101568222046,0.32209286093711853,211.30157470703125,0.2416904717683792
4824522.794,1901,1900,634014455,217.76,103152054,1.2623534202575684,0.11775718629360199,212.5104522705078,0.21633696556091309
4824622.794,1901,1900,634014455,217.76,103152054,1.3015931844711304,0.11598463356494904,213.6819305419922,0.19772538542747498
4824722.794,1901,1900,634014423,217.75,103152017,1.20208740234375,0.15739992260932922,214.8327178955078,0.19077490270137787
4824822.794,1901,1900,634014392,217.77,103151977,1.259907841682434,0.16724544763565063,215.9998016357422,0.19419759511947632
4824922.794,1901,1900,634014392,217.77,103151977,1.2345675230026245,0.34317368268966675,217.20872497558594,0.1989961713552475
4825022.794,1901,1900,634014362,217.77,103151934,1.245530366897583,0.33562639355659485,218.43954467773438,0.20490550994873047
4825122.794,1901,1900,634014362,217.77,103151934,1.2587913274765015,0.28719714283943176,219.65382385253906,0.20713315904140472
4825222.794,1901,1900,634014332,217.77,103151889,1.2140696048736572,0.33357515931129456,220.867919921875,0.20490995049476624
4825322.794,1901,1900,634014332,217.77,103151889,1.2370734214782715,0.19936272501945496,222.0447540283203,0.20151612162590027
4825422.794,1901,1900,634014304,217.77,103151842,1.2680463790893555,0.1842547506093979,223.19863891601562,0.19599981606006622
4825522.794,1901,1900,634014304,217.77,103151842,1.302206039428711,0.21847455203533173,224.35977172851562,0.19371992349624634
4825622.794,1901,1900,634014304,217.77,103151842,1.1719030141830444,0.20489731431007385,225.51609802246094,0.1946273297071457
4825722.794,1901,1900,634014276,217.78,103151792,1.2905235290527344,0.2868870496749878,226.69369506835938,0.19762609899044037
4825822.794,1901,1900,634014250,217.79,103151739,1.253693699836731,0.30551522970199585,227.87936401367188,0.19915950298309326
4825922.794,1901,1900,634014250,217.79,103151739,1.278063178062439,0.2560542821884155,229.08106994628906,0.20132558047771454
4826022.794,1901,1900,634014250,217.79,103151739,1.2753239870071411,0.2902606725692749,230.27293395996094,0.20128083229064941
4826122.794,1901,1900,634014224,217.79,103151684,1.288999319076538,0.27577656507492065,231.4302978515625,0.20071645081043243
4826222.794,1901,1900,634014224,217.79,103151684,1.3141037225723267,0.2067500501871109,232.56021118164062,0.19844067096710205
4826322.794,1901,1900,634014200,217.78,103151628,1.2639493942260742,0.23894286155700684,233.69454956054688,0.19551002979278564
4826422.794,1901,1900,634014200,217.78,103151628,1.2768913507461548,0.2390345335006714,234.8378448486328,0.19657841324806213
4826522.794,1901,1900,634014176,217.78,103151569,1.2249772548675537,0.23889616131782532,235.97134399414062,0.1952619105577469
4826622.794,1901,1900,634014176,217.78,103151569,1.2816213369369507,0.31910595297813416,237.13137817382812,0.19548627734184265
4826722.794,1901,1900,634014154,217.8,103151508,1.2347298860549927,0.2388695627450943,238.27294921875,0.19747692346572876
4826822.794,1901,1900,634014154,217.8,103151508,1.284308671951294,0.24408923089504242,239.4080810546875,0.19755087792873383
4826922.794,1901,1900,634014132,217.78,103151446,1.2377896308898926,0.27921515703201294,240.5506134033203,0.19697585701942444
4827022.794,1901,1900,634014132,217.78,103151446,1.283265471458435,0.23123985528945923,241.71681213378906,0.19749411940574646
4827122.794,1901,1900,634014111,217.77,103151382,1.2390297651290894,0.19292084872722626,242.84683227539062,0.19577930867671967
4827222.794,1901,1900,634014091,217.75,103151317,1.328338623046875,0.24968406558036804,243.9664306640625,0.1951678842306137
4827322.794,1901,1900,634014091,217.75,103151317,1.275626540184021,0.23155008256435394,245.07618713378906,0.19518764317035675
4827422.794,1901,1900,634014073,217.74,103151250,1.2700176239013672,0.2107439935207367,246.19911193847656,0.19321861863136292
4827522.794,1901,1900,634014073,217.74,103151250,1.2710936069488525,0.27344703674316406,247.31466674804688,0.1935393363237381
4827622.794,1901,1900,634014073,217.74,103151250,1.2113978862762451,0.1841999888420105,248.41714477539062,0.19134677946567535
4827722.794,1901,1900,634014057,217.73,103151181,1.2752888202667236,0.19943198561668396,249.53976440429688,0.19186660647392273
4827822.794,1901,1900,634014057,217.73,103151181,1.2713981866836548,0.2377493977546692,250.6223907470703,0.1913806051015854
4827922.794,1901,1900,634014042,217.75,103151111,1.2799566984176636,0.1999010294675827,251.70941162109375,0.18917404115200043
4828022.794,1901,1900,634014042,217.75,103151111,1.271965742111206,0.23480048775672913,252.7966766357422,0.18948285281658173
4828122.794,1901,1900,634014027,217.73,103151039,1.2623612880706787,0.2146623134613037,253.85855102539062,0.1883544921875
4828222.794,1901,1900,634014014,217.74,103150966,1.2778115272521973,0.2152346968650818,254.91685485839844,0.18848676979541779
4828322.794,1901,1900,634014014,217.74,103150966,1.2606021165847778,0.21069368720054626,255.9848175048828,0.18962077796459198
4828422.794,1901,1900,634014014,217.74,103150966,1.3271695375442505,0.217695415019989,257.0588073730469,0.19022539258003235
4828522.794,1901,1900,634014003,217.74,103150894,1.2294657230377197,0.23098880052566528,258.12677001953125,0.19163504242897034
4828622.794,1901,1900,634014003,217.74,103150894,1.29982590675354,0.21704837679862976,259.1910400390625,0.19087433815002441
4828722.794,1901,1900,634013993,217.74,103150819,1.2510929107666016,0.2546848952770233,260.24456787109375,0.18998363614082336
4828822.794,1901,1900,634013993,217.74,103150819,1.2639521360397339,0.23812800645828247,261.3160705566406,0.18953756988048553
4828922.794,1901,1900,634013984,217.73,103150743,1.319032907485962,0.24033445119857788,262.38433837890625,0.19064092636108398
4829022.794,1901,1900,634013984,217.73,103150743,1.2425734996795654,0.24913284182548523,263.4289245605469,0.19002291560173035
4829122.794,1901,1900,634013977,217.74,103150667,1.3007549047470093,0.18428747355937958,264.45538330078125,0.18765710294246674
4829222.794,1901,1900,634013970,217.75,103150591,1.2950698137283325,0.23037926852703094,265.49627685546875,0.1882624626159668
4829322.794,1901,1900,634013970,217.75,103150591,1.2735743522644043,0.2618445158004761,266.54705810546875,0.19060714542865753
4829422.794,1901,1900,634013970,217.75,103150591,1.24135422706604,0.21833692491054535,267.6054992675781,0.19394469261169434
4829522.794,1901,1900,634013966,217.75,103150514,1.2746808528900146,0.28246620297431946,268.698974609375,0.1955578476190567
4829622.794,1901,1900,634013966,217.75,103150514,1.2575888633728027,0.26677924394607544,269.7738037109375,0.198494091629982
4829722.794,1901,1900,634013962,217.75,103150437,1.2690372467041016,0.24989840388298035,270.85589599609375,0.1976843923330307
4829822.794,1901,1900,634013960,217.75,103150359,1.2598499059677124,0.2715027928352356,271.88525390625,0.19449163973331451
4829922.794,1901,1900,634013960,217.75,103150359,1.2581651210784912,0.2144322693347931,272.92156982421875,0.18980145454406738
4830022.794,1901,1900,634013959,217.74,103150281,1.255194902420044,0.21814802289009094,273.9364013671875,0.18621161580085754
4830122.794,1901,1900,634013959,217.74,103150281,1.299450397491455,0.24054251611232758,274.8940124511719,0.18444931507110596
4830222.794,1901,1900,634013960,217.75,103150202,1.2528817653656006,0.20010410249233246,275.8901062011719,0.18536974489688873
4830322.794,1901,1900,634013960,217.75,103150202,1.2675443887710571,0.2347075492143631,276.8624267578125,0.18550053238868713
4830422.794,1887,1900,634013960,217.75,103150202,1.2255644798278809,0.2222871631383896,277.860107421875,0.1875687539577484
4830522.794,1100,1900,634013962,217.75,103150124,2.4875030517578125,-0.22637812793254852,278.5518798828125,0.17300954461097717
4830622.794,1100,1900,634013962,217.75,103150124,2.2634806632995605,-0.8673651814460754,277.73779296875,-0.0509931743144989
4830722.794,1100,1900,634013963,217.76,103150037,1.8659496307373047,-1.1777069568634033,276.0924987792969,-0.2544066905975342
4830822.794,1100,1900,634013961,217.77,103149950,1.6483782529830933,-1.348386526107788,274.14288330078125,-0.3321468234062195
4830922.794,1100,1900,634013961,217.77,103149950,1.4919453859329224,-1.2526094913482666,272.15673828125,-0.3455623686313629
4831022.794,1100,1900,634013955,217.76,103149861,1.392671823501587,-1.0339747667312622,270.3389892578125,-0.32385003566741943
4831122.794,1100,1900,634013955,217.76,103149861,1.335815668106079,-0.8205329775810242,268.7223815917969,-0.2872626781463623
4831222.794,1100,1900,634013955,217.76,103149861,1.3478461503982544,-0.7291719913482666,267.2358093261719,-0.2572936415672302
4831322.794,1100,1900,634013947,217.76,103149774,1.3626642227172852,-0.5987133979797363,265.8817443847656,-0.24022717773914337
4831422.794,1100,1900,634013947,217.76,103149774,1.3833094835281372,-0.5864824056625366,264.5357360839844,-0.23251673579216003
4831522.794,1100,1900,634013939,217.76,103149686,1.3379442691802979,-0.7655932903289795,263.18890380859375,-0.23438486456871033
4831622.794,1100,1900,634013939,217.76,103149686,1.3939841985702515,-0.8322702646255493,261.7962951660156,-0.2391793429851532
4831722.794,1100,1900,634013928,217.76,103149600,1.3565484285354614,-0.8848069906234741,260.3722839355469,-0.24621990323066711
4831822.794,1100,1900,634013914,217.76,103149516,1.3349697589874268,-0.9054765701293945,258.94580078125,-0.2510127127170563
4831922.794,1100,1900,634013914,217.76,103149516,1.3197327852249146,-0.7904924154281616,257.5133361816406,-0.2530083656311035
4832022.794,1100,1900,634013900,217.76,103149432,1.2863774299621582,-0.7125460505485535,256.10443115234375,-0.2488372027873993
4832122.794,1100,1900,634013900,217.76,103149432,1.3039816617965698,-0.7532086372375488,254.7159423828125,-0.2442779839038849
4832222.794,1100,1900,634013883,217.76,103149350,1.3197234869003296,-0.7350390553474426,253.3671112060547,-0.23902791738510132
4832322.794,1100,1900,634013883,217.76,103149350,1.3268704414367676,-0.7860456109046936,252.0015106201172,-0.238044872879982
4832422.794,1100,1900,634013864,217.76,103149271,1.3545174598693848,-0.7808616161346436,250.63836669921875,-0.2433529794216156
4832522.794,1100,1900,634013864,217.76,103149271,1.2586684226989746,-0.8187544345855713,249.25050354003906,-0.24932798743247986
4832622.794,1100,1900,634013864,217.76,103149271,1.2694345712661743,-0.8184422254562378,247.8723907470703,-0.2492334544658661
4832722.794,1100,1900,634013844,217.77,103149193,1.2440433502197266,-0.7905168533325195,246.49609375,-0.247673898935318
4832822.794,1100,1900,634013844,217.77,103149193,1.3378791809082031,-0.758902370929718,245.1533660888672,-0.24622845649719238
4832922.794,1100,1900,634013821,217.77,103149119,1.3406305313110352,-0.7279289960861206,243.78115844726562,-0.2441607415676117
4833022.794,1100,1900,634013821,217.77,103149119,1.305159568786621,-0.7691718339920044,242.454345703125,-0.24337628483772278
4833122.794,1100,1900,634013798,217.78,103149045,1.2930691242218018,-0.797426700592041,241.09237670898438,-0.245070680975914
4833222.794,1100,1900,634013773,217.78,103148976,1.2814570665359497,-0.7747470140457153,239.740966796875,-0.2442706823348999
4833322.794,1100,1900,634013773,217.78,103148976,1.255446434020996,-0.7797257304191589,238.38963317871094,-0.24373272061347961
4833422.794,1100,1900,634013773,217.78,103148976,1.3080666065216064,-0.8179599642753601,237.0436248779297,-0.24174176156520844
4833522.794,1100,1900,634013746,217.79,103148910,1.2731566429138184,-0.825736403465271,235.691650390625,-0.24114170670509338
4833622.794,1100,1900,634013746,217.79,103148910,1.3221067190170288,-0.7201517820358276,234.37066650390625,-0.23883463442325592
4833722.794,1100,1900,634013718,217.78,103148846,1.2911994457244873,-0.7705349326133728,233.06439208984375,-0.23804137110710144
4833822.794,1100,1900,634013718,217.78,103148846,1.3170440196990967,-0.7394231557846069,231.75729370117188,-0.23705585300922394
4833922.794,1100,1900,634013688,217.77,103148786,1.2793807983398438,-0.7291869521141052,230.46762084960938,-0.23559227585792542
4834022.794,1100,1900,634013658,217.78,103148729,1.329674482345581,-0.7366026043891907,229.15879821777344,-0.23788711428642273
4834122.794,1100,1900,634013658,217.78,103148729,1.3086490631103516,-0.7802420854568481,227.87046813964844,-0.23795530200004578
4834222.794,1100,1900,634013626,217.78,103148675,1.3027843236923218,-0.7932032346725464,226.5630340576172,-0.23852817714214325
4834322.794,1100,1900,634013626,217.78,103148675,1.2643046379089355,-0.767113447189331,225.23439025878906,-0.24173133075237274
4834422.794,1100,1900,634013593,217.79,103148624,1.2741429805755615,-0.7866661548614502,223.91412353515625,-0.24359449744224548
4834522.794,1100,1900,634013593,217.79,103148624,1.2716994285583496,-0.8034178018569946,222.58851623535156,-0.24129192531108856
4834622.794,1100,1900,634013593,217.79,103148624,1.2786006927490234,-0.7660541534423828,221.2541046142578,-0.2419050931930542
4834722.794,1100,1900,634013558,217.78,103148577,1.2669603824615479,-0.7298130393028259,219.98208618164062,-0.2379322350025177
4834822.794,1100,1900,634013558,217.78,103148577,1.2858386039733887,-0.7767449617385864,218.7101287841797,-0.2314872443675995
4834922.794,1100,1900,634013525,217.81,103148533,1.3176350593566895,-0.7339774966239929,217.434814453125,-0.23348508775234222
4835022.794,1100,1900,634013490,217.87,103148493,1.283308982849121,-0.7405206561088562,216.1387176513672,-0.23642423748970032
4835122.794,1100,1900,634013490,217.87,103148493,1.2808433771133423,-0.7506900429725647,214.8652801513672,-0.23705901205539703
4835222.794,1100,1900,634013454,217.86,103148458,1.3279106616973877,-0.7664803266525269,213.54144287109375,-0.2374381273984909
4835322.794,1100,1900,634013454,217.86,103148458,1.3322850465774536,-0.7456276416778564,212.23977661132812,-0.23934724926948547
4835422.794,1100,1900,634013454,217.86,103148458,1.2637754678726196,-0.7205775380134583,210.9403839111328,-0.23736612498760223
4835522.794,1100,1900,634013416,217.86,103148427,1.2968206405639648,-0.7431411743164062,209.63031005859375,-0.2348484992980957
4835622.794,1100,1900,634013416,217.86,103148427,1.258463978767395,-0.7481878399848938,208.3663330078125,-0.23365727066993713
4835722.794,1100,1900,634013378,217.85,103148400,1.2922725677490234,-0.7489029169082642,207.10354614257812,-0.23234829306602478
4835822.794,1492,1481,634013378,217.85,103148400,0.7880712747573853,-0.7489078044891357,205.846923828125,-0.23298300802707672
4835922.794,1489,1479,634013341,217.84,103148377,-0.5584931969642639,-0.31608378887176514,205.32742309570312,-0.1461196392774582
4836022.794,1489,1472,634013310,217.83,103148358,-0.7691959738731384,0.06795762479305267,205.20831298828125,-0.027689503505825996
4836122.794,1847,1533,634013310,217.83,103148358,-1.3644014596939087,0.03629409521818161,205.29971313476562,0.020743729546666145
4836222.794,1901,1840,634013285,217.83,103148341,-1.1324692964553833,-0.10108423233032227,205.53158569335938,0.047334279865026474
4836322.794,1863,1250,634013285,217.83,103148341,-1.4119246006011963,0.12227931618690491,205.84335327148438,0.06104486435651779
4836422.794,1863,1250,634013265,217.83,103148326,-0.7750622034072876,0.09091231226921082,206.306396484375,0.08331964164972305
4836522.794,1863,1250,634013265,217.83,103148326,-0.6356250047683716,-0.09785031527280807,206.85940551757812,0.10545976459980011
4836622.794,1863,1250,634013265,217.83,103148326,-0.4436882436275482,0.0836271196603775,207.4880828857422,0.11272574216127396
4836722.794,1863,1250,634013248,217.81,103148313,-1.036530613899231,0.1293785572052002,208.26943969726562,0.13513678312301636
4836822.794,1863,1250,634013248,217.81,103148313,-2.3244502544403076,0.14012199640274048,209.51451110839844,0.19653122127056122
4836922.794,1863,1250,634013240,217.81,103148301,-2.121851921081543,0.1678783893585205,211.23072814941406,0.28599733114242554
4837022.794,1863,1250,634013231,217.67,103148287,-2.213850975036621,0.11923880875110626,213.3123779296875,0.3462067246437073
4837122.794,1863,1250,634013231,217.67,103148287,-1.97789466381073,0.0806531310081482,215.8694305419922,0.4221486449241638
4837222.794,1863,1250,634013232,217.7,103148284,-1.8874783515930176,0.1572120040655136,218.87014770507812,0.49455180764198303
4837322.794,1863,1250,634013232,217.7,103148284,-1.677625298500061,0.22070986032485962,222.43832397460938,0.5855430960655212
4837422.794,1863,1250,634013232,217.7,103148284,-1.63932204246521,-0.11645938456058502,226.48391723632812,0.6814962029457092
4837522.794,1863,1250,634013237,217.7,103148286,-1.4249060153961182,-0.19327598810195923,230.83560180664062,0.7432610392570496
4837622.794,1863,1250,634013237,217.7,103148286,-1.3422235250473022,-0.4898712635040283,235.16326904296875,0.7602809071540833
4837722.794,1863,1250,634013243,217.68,103148296,-1.0877842903137207,-0.9398209452629089,239.2135467529297,0.7301695346832275
4837822.794,1863,1250,634013243,217.68,103148296,-1.0498278141021729,-1.024700403213501,242.79183959960938,0.6583625674247742
4837922.794,1863,1250,634013251,217.67,103148316,-1.024745225906372,-0.9906227588653564,246.03179931640625,0.5839114189147949
4838022.794,1863,1250,634013258,217.67,103148343,-1.1527400016784668,-0.8223971128463745,249.2386016845703,0.5568006634712219
4838122.794,1863,1250,634013258,217.67,103148343,-0.9141339659690857,-0.7597692608833313,252.60792541503906,0.576642632484436
4838222.794,1863,1250,634013258,217.67,103148343,-0.6550236940383911,-0.6741740107536316,255.89578247070312,0.5842295289039612
4838322.794,1863,1250,634013264,217.69,103148378,-0.40791943669319153,-0.4266456067562103,258.71844482421875,0.5298290848731995
4838422.794,1863,1250,634013264,217.69,103148378,-0.5834208726882935,-0.12584832310676575,260.92022705078125,0.4186415672302246
4838522.794,1863,1250,634013269,217.69,103148414,-0.4757547080516815,-0.086803138256073,262.6530456542969,0.33147552609443665
4838622.794,1863,1250,634013269,217.69,103148414,-0.5748097896575928,-0.23437686264514923,264.07403564453125,0.26942116022109985
4838722.794,1863,1250,634013274,217.66,103148455,-0.5805073976516724,-0.3734109103679657,265.3769836425781,0.23939192295074463
4838822.794,1863,1250,634013274,217.66,103148455,-0.44017714262008667,-0.5994318723678589,266.6144104003906,0.23068150877952576
4838922.794,1863,1250,634013278,217.65,103148499,-0.403982937335968,-0.7088310718536377,267.75616455078125,0.21534663438796997
4839022.794,1863,1250,634013281,217.65,103148547,-0.4879191219806671,-0.6878401041030884,268.9229431152344,0.2132437825202942
4839122.794,1863,1250,634013281,217.65,103148547,-0.3761056363582611,-0.5458164215087891,270.22015380859375,0.22746878862380981
4839222.794,1863,1250,634013281,217.65,103148547,-0.2895548641681671,-0.3664116859436035,271.60968017578125,0.24520935118198395
4839322.794,1863,1250,634013284,217.68,103148598,-0.11047068238258362,-0.09055569022893906,272.9869384765625,0.2476179152727127
4839422.794,1863,1250,634013284,217.68,103148598,-0.015294733457267284,0.1848514974117279,274.2020263671875,0.22938868403434753
4839522.794,1863,1250,634013286,217.68,103148648,0.014388279989361763,0.23637863993644714,275.12847900390625,0.19084389507770538
4839622.794,1863,1250,634013286,217.68,103148648,-0.015556029044091702,0.0035674807149916887,275.7589416503906,0.1436198651790619
4839722.794,1863,1250,634013287,217.63,103148698,0.0170411579310894,-0.2753802239894867,276.1798095703125,0.10177592188119888
4839822.794,1863,1250,634013287,217.63,103148698,-0.0516822449862957,-0.6830081939697266,276.6024475097656,0.0860905647277832
4839922.794,1863,1250,634013287,217.59,103148749,-0.057163819670677185,-1.089449405670166,277.2403564453125,0.1089792251586914
4840022.794,1863,1250,634013288,217.65,103148803,0.028631318360567093,-1.1135003566741943,278.0893249511719,0.13627853989601135
4840122.794,1863,1250,634013288,217.65,103148803,0.12178037315607071,-0.7948111295700073,279.00177001953125,0.14959293603897095
4840222.794,1863,1250,634013288,217.65,103148803,0.25233328342437744,-0.3232232630252838,279.892333984375,0.1500960737466812
4840322.794,1863,1250,634013286,217.69,103148857,0.3967975080013275,0.3878580927848816,280.663330078125,0.13777396082878113
4840422.794,1863,1250,634013286,217.69,103148857,0.47297346591949463,0.5754615664482117,281.3032531738281,0.12230469286441803
4840522.794,1863,1250,634013286,217.65,103148911,0.5190783739089966,0.16689103841781616,281.8536071777344,0.11322443932294846
4840622.794,1863,1250,634013286,217.65,103148911,0.4699053168296814,-0.4523516297340393,282.4454345703125,0.12102709710597992
4840722.794,1863,1250,634013283,217.62,103148966,0.3056732416152954,-0.9695534110069275,283.2384033203125,0.15334728360176086
4840822.794,1863,1250,634013283,217.62,103148966,0.0710911750793457,-1.175660252571106,284.3808288574219,0.2103588581085205
4840922.794,1863,1250,634013280,217.66,103149022,-0.20176096260547638,-1.011168122291565,285.930908203125,0.26856619119644165
4841022.794,1863,1250,634013280,217.66,103149022,-0.16479367017745972,-0.41655778884887695,287.7232971191406,0.31076353788375854
4841122.794,1863,1250,634013274,217.72,103149079,-0.07240302860736847,0.3992193043231964,289.5879211425781,0.33433640003204346
4841222.794,1863,1250,634013274,217.72,103149079,0.29690515995025635,0.4408610761165619,291.3621826171875,0.3333844840526581
4841322.794,1863,1250,634013269,217.63,103149133,0.3303878605365753,-0.38428574800491333,292.7363586425781,0.2892954647541046
4841422.794,1863,1250,634013263,217.62,103149184,0.19971202313899994,-0.9707337617874146,293.6185302734375,0.20430757105350494
4841522.794,1863,1250,634013263,217.62,103149184,-0.0974084734916687,-1.2251005172729492,294.3719482421875,0.15379752218723297
4841622.794,1484,1482,634013263,217.62,103149184,0.29277509450912476,-1.3486528396606445,295.13916015625,0.14024268090724945
4841722.794,1486,1483,634013255,217.7,103149232,0.9666106700897217,-1.0959752798080444,295.3302001953125,0.05723041296005249
4841822.794,1486,1483,634013255,217.7,103149232,1.5648763179779053,-0.2778280973434448,294.6671142578125,-0.08867920190095901
4841922.794,1486,1483,634013248,217.73,103149268,1.7031246423721313,0.6500241756439209,293.5462341308594,-0.18539713323116302
4842022.794,1486,1483,634013248,217.73,103149268,1.5954598188400269,0.658793032169342,292.4256591796875,-0.19466757774353027
4842122.794,1486,1483,634013242,217.67,103149302,1.23348867893219,0.2740767300128937,291.5396423339844,-0.1459631323814392
4842222.794,1486,1483,634013242,217.67,103149302,0.6864581108093262,-0.1820758879184723,291.07476806640625,-0.059336014091968536
4842322.794,1486,1483,634013238,217.69,103149335,0.33704859018325806,-0.508392333984375,291.1398010253906,0.03843306750059128
4842422.794,1486,1483,634013238,217.69,103149335,0.2504938244819641,-0.5078998804092407,291.5555419921875,0.0997186154127121
4842522.794,1486,1483,634013233,217.74,103149367,0.3699575364589691,-0.14544811844825745,291.93145751953125,0.0941324234008789
4842622.794,1486,1483,634013233,217.74,103149367,0.5447180271148682,0.27033329010009766,291.9488525390625,0.03818832337856293
4842722.794,1486,1483,634013229,217.74,103149396,0.6714574098587036,0.43717238306999207,291.6341552734375,-0.02468026615679264
4842822.794,1486,1483,634013229,217.74,103149396,0.6686967611312866,0.08191554993391037,291.1468505859375,-0.06087259203195572
4842922.794,1486,1483,634013226,217.7,103149422,0.5403172373771667,-0.3899204134941101,290.62469482421875,-0.06811346113681793
4843022.794,1486,1483,634013226,217.7,103149422,0.34544920921325684,-0.6652917861938477,290.1412658691406,-0.05434677377343178
4843122.794,1486,1486,634013223,217.7,103149446,0.10359503328800201,-0.7339917421340942,289.86871337890625,-0.02495349757373333
4843222.794,1486,1517,634013223,217.7,103149446,0.009832145646214485,-0.5708352327346802,289.8357849121094,0.0063247899524867535
4843322.794,1486,1517,634013218,217.74,103149469,0.0287783145904541,-0.1348922848701477,289.8878479003906,0.019583817571401596
4843422.794,1486,1724,634013216,217.75,103149492,0.17855598032474518,0.2729828357696533,289.9048156738281,0.012563742697238922
4843522.794,1486,1724,634013216,217.75,103149492,0.527239978313446,0.3936690092086792,289.8393859863281,0.0020111037883907557
4843622.794,1486,1900,634013216,217.75,103149492,0.8823392987251282,0.17818981409072876,289.83758544921875,0.009958327747881413
4843722.794,1486,1900,634013214,217.74,103149511,0.6576545834541321,-0.21049639582633972,289.99969482421875,0.029150517657399178
4843822.794,1486,1480,634013214,217.74,103149511,2.2140684127807617,-0.39193230867385864,290.57757568359375,0.07410229742527008
4843922.794,1498,1492,634013213,217.75,103149520,1.8425673246383667,-0.3665827512741089,291.15631103515625,0.10654602199792862
4844022.794,1498,1510,634013213,217.75,103149520,1.200443148612976,-0.3514714241027832,291.4544372558594,0.08050096780061722
4844122.794,1498,1520,634013212,217.76,103149523,0.4695122241973877,-0.05344181880354881,291.4212341308594,0.03113107569515705
4844222.794,1498,1520,634013212,217.76,103149523,0.03502725809812546,-0.011432974599301815,291.1534423828125,-0.009535189718008041
4844322.794,1498,1520,634013212,217.75,103149526,-0.43688124418258667,-0.0521392859518528,290.93414306640625,-0.01916475035250187
4844422.794,1498,1520,634013211,217.73,103149533,-0.5451048612594604,-0.16331815719604492,291.14288330078125,0.022495465353131294
4844522.794,1498,1520,634013211,217.73,103149533,-0.3654119372367859,-0.31977468729019165,291.8235778808594,0.10061706602573395
4844622.794,1499,1520,634013211,217.73,103149533,-0.07635720074176788,-0.6433447599411011,292.5316467285156,0.1417960524559021
4844722.794,1501,1520,634013211,217.77,103149538,0.16970081627368927,-0.6208226084709167,292.8038024902344,0.09410794079303741
4844822.794,1501,1520,634013211,217.77,103149538,0.2683087885379791,-0.18449576199054718,292.5778503417969,0.00012785030412487686
4844922.794,1501,1520,634013209,217.8,103149542,0.3231649100780487,0.2463245689868927,292.21282958984375,-0.058099232614040375
4845022.794,1501,1520,634013209,217.8,103149542,0.19849546253681183,0.5745373368263245,292.1915588378906,-0.03508584946393967
4845122.794,1501,1520,634013210,217.77,103149545,0.03257392346858978,0.2446107715368271,292.64007568359375,0.05820741504430771
4845222.794,1501,1520,634013210,217.77,103149545,-0.12791582942008972,-0.34178242087364197,293.21636962890625,0.1316843330860138
4845322.794,1502,1520,634013209,217.76,103149550,-0.1325850933790207,-0.7644625902175903,293.4963684082031,0.11386839300394058
4845422.794,1502,1520,634013208,217.79,103149552,-0.09542739391326904,-0.7424822449684143,293.29083251953125,0.019553685560822487
4845522.794,1502,1520,634013208,217.79,103149552,0.03079795092344284,-0.3115232288837433,292.79083251953125,-0.07424252480268478
4845622.794,1502,1520,634013208,217.79,103149552,0.04348333179950714,0.27854159474372864,292.438232421875,-0.09533916413784027
4845722.794,1502,1520,634013207,217.76,103149556,0.002725215395912528,0.3280577063560486,292.53546142578125,-0.025116492062807083
4845822.794,1502,1520,634013207,217.76,103149556,-0.0013711481587961316,-0.17373476922512054,292.9684753417969,0.06440732628107071
4845922.794,1502,1525,634013207,217.75,103149561,0.09140104800462723,-0.5708909034729004,293.4195556640625,0.1047176867723465
4846022.794,1502,1525,634013207,217.75,103149561,0.21043285727500916,-0.7429443001747131,293.6022033691406,0.07504743337631226
4846122.794,1502,1526,634013206,217.79,103149565,0.2613377571105957,-0.47270065546035767,293.377197265625,0.0009918720461428165
4846222.794,1502,1526,634013206,217.79,103149565,0.13116298615932465,0.21671836078166962,292.93328857421875,-0.061950042843818665
4846322.794,1502,1526,634013205,217.79,103149567,-0.1106894314289093,0.5898241996765137,292.6318664550781,-0.0632220208644867
4846422.794,1502,1526,634013205,217.76,103149571,-0.29713892936706543,0.2868705987930298,292.63470458984375,-0.011737468652427197
4846522.794,1502,1526,634013205,217.76,103149571,-0.26057037711143494,-0.29820680618286133,292.8773193359375,0.04324822872877121
4846622.794,1502,1526,634013205,217.76,103149571,-0.030563879758119583,-0.6492742300033569,293.17779541015625,0.06319579482078552
4846722.794,1502,1526,634013204,217.78,103149575,0.26814866065979004,-0.6971802115440369,293.3305358886719,0.04141036793589592
4846822.794,1502,1526,634013204,217.78,103149575,0.3879155218601227,-0.2746221721172333,293.2167663574219,-0.0021950826048851013
4846922.794,1502,1526,634013202,217.79,103149577,0.27480119466781616,0.16591733694076538,292.93939208984375,-0.03608449548482895
4847022.794,1502,1525,634013202,217.79,103149577,0.03771954029798508,0.16103506088256836,292.6790771484375,-0.04172658547759056
4847122.794,1502,1525,634013202,217.78,103149580,-0.1564512848854065,-0.11399631202220917,292.58599853515625,-0.01821429468691349
4847222.794,1502,1524,634013202,217.78,103149583,-0.1883685141801834,-0.35630863904953003,292.6791076660156,0.018808357417583466
4847322.794,1502,1520,634013202,217.78,103149583,-0.10094332695007324,-0.4131115972995758,292.8724365234375,0.04437326267361641
4847422.794,1502,1515,634013202,217.78,103149583,0.03186718747019768,-0.2540930509567261,292.9803161621094,0.041817471385002136
4847522.794,1502,1515,634013200,217.8,103149586,0.12319072335958481,0.012751425616443157,292.8624267578125,0.009725730866193771
4847622.794,1502,1515,634013200,217.8,103149586,0.1163327544927597,0.07558314502239227,292.5653076171875,-0.03141973167657852
4847722.794,1502,1515,634013200,217.79,103149590,0.06620590388774872,-0.08122288435697556,292.2987060546875,-0.05062832310795784
4847822.794,1502,1517,634013199,217.8,103149594,0.045624054968357086,-0.23773193359375,292.281982421875,-0.02572408691048622
4847922.794,1511,1517,634013199,217.8,103149594,0.025871658697724342,-0.32522961497306824,292.52423095703125,0.028468063101172447
4848022.794,1509,1517,634013198,217.8,103149597,0.06622058153152466,-0.25511598587036133,292.82672119140625,0.06913762539625168
4848122.794,1508,1517,634013198,217.8,103149597,0.10610689222812653,-0.11793524026870728,292.8863220214844,0.05499386787414551
4848222.794,1507,1518,634013198,217.8,103149597,0.04360475391149521,-0.04353191331028938,292.5975341796875,-0.008349617011845112
4848322.794,1507,1512,634013198,217.79,103149599,-0.0401657409965992,-0.13378287851810455,292.1903991699219,-0.06293794512748718
4848422.794,1507,1512,634013198,217.79,103149599,-0.08399386703968048,-0.21367207169532776,291.9613952636719,-0.06146187335252762
4848522.794,1507,1512,634013197,217.79,103149602,-0.05729850381612778,-0.21923720836639404,292.07525634765625,-0.008636020123958588
4848622.794,1507,1485,634013197,217.79,103149602,0.03976549953222275,-0.16294951736927032,292.41839599609375,0.05220413580536842
4848722.794,1507,1485,634013196,217.79,103149606,0.15459589660167694,-0.1070692390203476,292.6841125488281,0.07082907110452652
4848822.794,1507,1478,634013195,217.78,103149609,0.18372991681098938,-0.15020853281021118,292.61614990234375,0.03090544417500496
4848922.794,1507,1477,634013195,217.78,103149609,0.12239724397659302,-0.20809638500213623,292.2130432128906,-0.030171815305948257
4849022.794,1507,1477,634013195,217.78,103149609,0.011575021781027317,-0.21888920664787292,291.89678955078125,-0.06039940565824509
4849122.794,1507,1477,634013194,217.78,103149612,-0.08337201178073883,-0.14828485250473022,291.83245849609375,-0.038226060569286346
4849222.794,1507,1477,634013194,217.78,103149612,-0.09742272645235062,-0.07391183078289032,292.03265380859375,0.01254733931273222
4849322.794,1507,1477,634013194,217.78,103149615,-0.031451787799596786,-0.09737694263458252,292.3045959472656,0.05247211456298828
4849422.794,1507,1477,634013194,217.78,103149615,0.09662042558193207,-0.21633866429328918,292.4106750488281,0.05128547549247742
4849522.794,1507,1477,634013193,217.78,103149619,0.16089874505996704,-0.27501046657562256,292.2733459472656,0.011296349577605724
4849622.794,1507,1477,634013193,217.78,103149619,0.1298452466726303,-0.2035161554813385,292.02093505859375,-0.030681615695357323
4849722.794,1507,1477,634013193,217.79,103149621,0.029856065288186073,-0.11152161657810211,291.8585205078125,-0.03977075591683388
4849822.794,1507,1477,634013192,217.79,103149624,-0.05483729764819145,-0.05154933035373688,291.8923645019531,-0.012981626205146313
4849922.794,1507,1477,634013192,217.79,103149624,-0.05013902485370636,-0.09786009788513184,292.04583740234375,0.022605951875448227
4850022.794,1507,1477,634013192,217.79,103149624,0.008246508426964283,-0.16003164649009705,292.1669921875,0.0361834317445755
4850122.794,1507,1477,634013191,217.79,103149627,0.08277688920497894,-0.18633294105529785,292.1203308105469,0.018645670264959335
4850222.794,1507,1477,634013191,217.79,103149627,0.11115957796573639,-0.15125346183776855,291.9406433105469,-0.013544651679694653
4850322.794,1507,1477,634013190,217.78,103149630,0.08495811372995377,-0.1283366084098816,291.74371337890625,-0.0340224914252758
4850422.794,1507,1477,634013190,217.78,103149630,0.024336671456694603,-0.1899832934141159,291.6290283203125,-0.030959876254200935
4850522.794,1507,1477,634013190,217.78,103149633,-0.014307055622339249,-0.26499855518341064,291.6549377441406,-0.010715118609368801
4850622.794,1507,1477,634013190,217.78,103149633,-0.010608051903545856,-0.2807615101337433,291.7673645019531,0.014225229620933533
4850722.794,1507,1477,634013189,217.78,103149637,0.03632456064224243,-0.2306338995695114,291.8769836425781,0.027543215081095695
4850822.794,1507,1477,634013189,217.78,103149637,0.07988104224205017,-0.13279147446155548,291.8881530761719,0.022393686696887016
4850922.794,1507,1477,634013188,217.79,103149639,0.08067291229963303,-0.07118372619152069,291.778076171875,0.005289225373417139
4851022.794,1507,1477,634013188,217.79,103149639,0.02281603403389454,-0.06046581268310547,291.6373291015625,-0.012482363730669022
4851122.794,1507,1477,634013188,217.79,103149641,-0.048761166632175446,-0.06664648652076721,291.54827880859375,-0.019417263567447662
4851222.794,1507,1477,634013188,217.79,103149641,-0.052670918405056,-0.05400189757347107,291.5497131347656,-0.00887591578066349
4851322.794,1507,1477,634013188,217.79,103149644,0.03377778083086014,-0.06975056976079941,291.58233642578125,0.007514863274991512
4851422.794,1507,1477,634013188,217.79,103149644,0.1285506933927536,-0.13286030292510986,291.5498046875,0.011520087718963623
4851522.794,1507,1477,634013187,217.78,103149646,0.15791302919387817,-0.2247556895017624,291.41888427734375,0.00004679196354118176
4851622.794,1507,1479,634013187,217.78,103149646,0.11677075922489166,-0.33539140224456787,291.1903991699219,-0.018544215708971024
4851722.794,1507,1479,634013187,217.78,103149649,0.031792595982551575,-0.3540005683898926,291.02740478515625,-0.029778892174363136
4851822.794,1507,1486,634013187,217.78,103149649,-0.03001946210861206,-0.3080647587776184,290.9753723144531,-0.02394276112318039
4851922.794,1507,1488,634013186,217.78,103149651,-0.04946507513523102,-0.23381340503692627,291.06634521484375,-0.0022675776854157448
4852022.794,1507,1488,634013186,217.78,103149651,-0.01547552365809679,-0.15149708092212677,291.1896057128906,0.019553424790501595
4852122.794,1507,1488,634013186,217.79,103149653,0.021649252623319626,-0.0671110451221466,291.2861633300781,0.02819649502635002
4852222.794,1507,1488,634013186,217.79,103149653,0.052447088062763214,0.03528817743062973,291.30902099609375,0.021890845149755478
4852322.794,1507,1488,634013185,217.79,103149655,0.07907675206661224,0.06692014634609222,291.18975830078125,0.004831773694604635
4852422.794,1507,1488,634013185,217.79,103149655,0.05813722312450409,0.009846962057054043,291.01971435546875,-0.014165655709803104
4852522.794,1507,1488,634013185,217.78,103149657,0.026897091418504715,-0.0959179550409317,290.90472412109375,-0.023528382182121277
4852622.794,1507,1488,634013185,217.78,103149657,0.011927587911486626,-0.18758365511894226,290.8934631347656,-0.01541160885244608
4852722.794,1507,1488,634013185,217.77,103149658,0.04127456247806549,-0.26157286763191223,290.9478454589844,0.002063875086605549
4852822.794,1507,1488,634013185,217.77,103149658,0.0917736291885376,-0.350882351398468,290.93011474609375,0.011309966444969177
4852922.794,1507,1488,634013184,217.77,103149660,0.11932069063186646,-0.43118730187416077,290.8152770996094,0.0004898076294921339
4853022.794,1507,1488,634013184,217.77,103149660,0.06062725931406021,-0.3954981565475464,290.68304443359375,-0.018708188086748123
4853122.794,1507,1488,634013183,217.77,103149662,-0.01653815060853958,-0.23329822719097137,290.6466369628906,-0.019721489399671555
4853222.794,1507,1488,634013183,217.79,103149664,-0.04547518119215965,-0.05462276190519333,290.7564697265625,0.002057440113276243
4853322.794,1507,1488,634013183,217.79,103149664,-0.02052931860089302,0.03898881375789642,290.90234375,0.02484884485602379
4853422.794,1507,1488,634013183,217.79,103149664,0.010008126497268677,0.05573978275060654,290.95953369140625,0.028620781376957893
4853522.794,1507,1488,634013183,217.78,103149666,0.053514011204242706,0.03144782781600952,290.9433288574219,0.014483876526355743
4853622.794,1507,1488,634013183,217.78,103149666,0.08311727643013,0.01720534637570381,290.8499450683594,-0.00254806992597878
4853722.794,1507,1488,634013182,217.77,103149669,0.09141476452350616,-0.07795381546020508,290.75689697265625,-0.011422021314501762
4853822.794,1507,1488,634013182,217.77,103149669,0.06067687273025513,-0.2453237920999527,290.65814208984375,-0.012123068794608116
4853922.794,1507,1488,634013182,217.76,103149670,0.03478878736495972,-0.3813841938972473,290.5910339355469,-0.011339189484715462
4854022.794,1507,1488,634013182,217.76,103149670,0.03638859838247299,-0.4215655028820038,290.60394287109375,-0.0072479890659451485
4854122.794,1507,1488,634013181,217.76,103149672,0.049586523324251175,-0.3608477711677551,290.6889953613281,0.003745223395526409
4854222.794,1507,1488,634013180,217.77,103149673,0.07280782610177994,-0.2916920781135559,290.7495422363281,0.014085842296481133
4854322.794,1507,1488,634013180,217.77,103149673,0.05854349583387375,-0.2049904763698578,290.7410888671875,0.011346607469022274
4854422.794,1507,1488,634013180,217.77,103149673,-0.007991981692612171,-0.06241266801953316,290.6849060058594,-0.0015152106061577797
4854522.794,1507,1488,634013179,217.78,103149676,-0.04031998664140701,0.10156995058059692,290.67364501953125,-0.00673929788172245
4854622.794,1507,1488,634013179,217.78,103149676,-0.01239207573235035,0.1372002512216568,290.7137451171875,0.002852462697774172
4854722.794,1507,1488,634013179,217.77,103149678,0.045798443257808685,0.001363246701657772,290.7410888671875,0.013943690806627274
4854822.794,1507,1488,634013179,217.77,103149678,0.09287670254707336,-0.13816164433956146,290.70062255859375,0.010467320680618286
4854922.794,1507,1488,634013178,217.75,103149679,0.08347073942422867,-0.22779642045497894,290.5780029296875,-0.00602679792791605
4855022.794,1507,1488,634013178,217.75,103149679,0.06298293173313141,-0.29730069637298584,290.48199462890625,-0.016894344240427017
4855122.794,1507,1488,634013177,217.75,103149681,0.06014019623398781,-0.40609508752822876,290.46771240234375,-0.01248305942863226
4855222.794,1507,1488,634013177,217.75,103149681,0.07070823013782501,-0.4378821849822998,290.52239990234375,-0.0007925015524961054
4855322.794,1507,1488,634013176,217.77,103149683,0.042681045830249786,-0.3151888847351074,290.5795593261719,0.008512968197464943
4855422.794,1507,1488,634013176,217.77,103149683,-0.008526318706572056,-0.09844540059566498,290.6277770996094,0.012260312214493752
4855522.794,1507,1488,634013175,217.77,103149685,-0.012223605066537857,0.013633481226861477,290.60150146484375,0.009129177778959274
4855622.794,1507,1488,634013175,217.77,103149685,0.01568623073399067,0.04203607887029648,290.55419921875,0.0018536611460149288
4855722.794,1507,1488,634013174,217.77,103149686,0.06538490951061249,0.03632419928908348,290.4930114746094,-0.005075486842542887
4855822.794,1507,1488,634013174,217.77,103149686,0.07028704136610031,-0.004091859795153141,290.408447265625,-0.01164185255765915
4855922.794,1507,1488,634013174,217.76,103149687,0.027035357430577278,-0.1340494304895401,290.33074951171875,-0.015788059681653976
4856022.794,1507,1488,634013174,217.76,103149687,0.017954889684915543,-0.30217307806015015,290.3064270019531,-0.012620674446225166
4856122.794,1507,1488,634013174,217.75,103149688,0.05954214185476303,-0.39598748087882996,290.3114929199219,-0.0008565535536035895
4856222.794,1507,1488,634013174,217.75,103149688,0.11227864772081375,-0.38492488861083984,290.28924560546875,0.006493074353784323
4856322.794,1507,1488,634013173,217.76,103149689,0.07726658880710602,-0.31526750326156616,290.19830322265625,-0.0005385869881138206
4856422.794,1507,1488,634013173,217.76,103149689,0.0007577732903882861,-0.21257147192955017,290.13360595703125,-0.012704719789326191
4856522.794,1507,1488,634013172,217.77,103149690,-0.035061269998550415,-0.046197667717933655,290.1568298339844,-0.010650654323399067
4856622.794,1507,1488,634013172,217.77,103149690,0.0025162752717733383,0.09150911867618561,290.185546875,0.0028211777098476887
4856722.794,1507,1488,634013171,217.77,103149691,0.06043548882007599,0.08350935578346252,290.152099609375,0.007604632992297411
4856822.794,1507,1488,634013171,217.77,103149691,0.07363097369670868,-0.0454200804233551,290.02734375,-0.006321609485894442
4856922.794,1507,1488,634013171,217.75,103149692,0.03616851940751076,-0.1921074539422989,289.8905029296875,-0.021449198946356773
4857022.794,1507,1488,634013171,217.75,103149692,0.03879322484135628,-0.27202335000038147,289.81634521484375,-0.020352879539132118
4857122.794,1507,1488,634013170,217.75,103149692,0.05221507325768471,-0.3367544114589691,289.74566650390625,-0.012820837087929249
4857222.794,1507,1488,634013170,217.75,103149692,0.05258156359195709,-0.38868266344070435,289.65985107421875,-0.01205146312713623
4857322.794,1507,1488,634013169,217.76,103149693,0.020527327433228493,-0.3523363769054413,289.5916748046875,-0.01345081813633442
4857422.794,1507,1488,634013169,217.76,103149693,0.012320076115429401,-0.19660072028636932,289.5887756347656,-0.007831628434360027
4857522.794,1507,1488,634013168,217.78,103149694,0.02536807768046856,-0.015914592891931534,289.5834655761719,0.0008668186492286623
4857622.794,1507,1488,634013168,217.78,103149694,0.061220698058605194,0.04987972974777222,289.5033874511719,0.0006388194160535932
4857722.794,1507,1488,634013168,217.77,103149694,0.07698718458414078,0.026593754068017006,289.35614013671875,-0.012454479932785034
4857822.794,1507,1488,634013168,217.77,103149694,0.038564618676900864,-0.04684661328792572,289.20562744140625,-0.02511781081557274
4857922.794,1507,1488,634013168,217.76,103149695,-0.004538120701909065,-0.11596187204122543,289.1455993652344,-0.023793136700987816
4858022.794,1507,1488,634013168,217.76,103149695,0.011356448754668236,-0.22625690698623657,289.0888366699219,-0.012674343772232533
4858122.794,1507,1488,634013167,217.75,103149695,0.045706138014793396,-0.356004536151886,288.9569091796875,-0.010185555554926395
4858222.794,1507,1488,634013167,217.75,103149695,0.05048440396785736,-0.3886154294013977,288.8014831542969,-0.018277183175086975
4858322.794,1507,1488,634013167,217.75,103149695,0.032063134014606476,-0.3191761076450348,288.69903564453125,-0.021165255457162857
4858422.794,1507,1488,634013166,217.76,103149696,0.025554664433002472,-0.17699675261974335,288.62762451171875,-0.014998294413089752
4858522.794,1507,1488,634013166,217.76,103149696,0.05158418416976929,-0.059513114392757416,288.5418701171875,-0.008937563747167587
4858622.794,1507,1488,634013166,217.76,103149696,0.061474788933992386,0.014530548825860023,288.4215087890625,-0.012318504974246025
4858722.794,1507,1488,634013165,217.77,103149697,0.0491366982460022,0.027415229007601738,288.30694580078125,-0.017511505633592606
4858822.794,1507,1488,634013165,217.77,103149697,0.03161359578371048,-0.027201052755117416,288.1829833984375,-0.017154261469841003
4858922.794,1507,1488,634013164,217.75,103149697,0.021479124203324318,-0.1368386447429657,288.07757568359375,-0.015343377366662025
4859022.794,1507,1488,634013164,217.75,103149697,0.027799120172858238,-0.2848380208015442,287.94970703125,-0.01745307259261608
4859122.794,1507,1488,634013163,217.75,103149697,0.014639992266893387,-0.36037302017211914,287.8205261230469,-0.022528747096657753
4859222.794,1507,1488,634013162,217.75,103149697,0.0016215282958000898,-0.3345320224761963,287.71588134765625,-0.022895822301506996
4859322.794,1507,1488,634013162,217.75,103149697,0.011454638093709946,-0.22353383898735046,287.6448974609375,-0.01722044311463833
4859422.794,1507,1488,634013161,217.76,103149697,0.037897855043411255,-0.13226690888404846,287.5867919921875,-0.011934351176023483
4859522.794,1507,1488,634013161,217.76,103149697,0.07906489074230194,-0.056047938764095306,287.493896484375,-0.011251701042056084
4859622.794,1507,1488,634013161,217.76,103149697,0.09357471764087677,-0.011024237610399723,287.34259033203125,-0.017885955050587654
4859722.794,1507,1488,634013161,217.74,103149698,0.06398249417543411,-0.02175239287316799,287.20135498046875,-0.026654358953237534
4859822.794,1507,1488,634013161,217.74,103149698,0.016749726608395576,-0.09021464735269547,287.1063232421875,-0.026546726003289223
4859922.794,1507,1488,634013161,217.74,103149698,0.006124061532318592,-0.2040908932685852,287.01611328125,-0.01754014380276203
4860022.794,1507,1488,634013161,217.74,103149698,0.019265640527009964,-0.2957240045070648,286.88360595703125,-0.013033662922680378
4860122.794,1507,1488,634013160,217.74,103149699,0.001219379366375506,-0.3089348077774048,286.7333984375,-0.018318448215723038
4860222.794,1507,1488,634013160,217.74,103149700,-0.02412582002580166,-0.2767113447189331,286.7333984375,-0.022218551486730576
4860322.794,1507,1488,634013160,217.74,103149700,-0.00019935387535952032,-0.1818847805261612,286.63336181640625,-0.018392130732536316
4860422.794,1507,1488,634013160,217.74,103149700,0.058495134115219116,-0.08185924589633942,286.5618591308594,-0.013658224605023861
4860522.794,1507,1488,634013159,217.74,103149700,0.09422790259122849,-0.029004136100411415,286.4385070800781,-0.01777285523712635
4860622.794,1507,1488,634013159,217.74,103149700,0.08251004666090012,-0.026371847838163376,286.26361083984375,-0.025305846706032753
4860722.794,1507,1488,634013159,217.73,103149700,0.057715822011232376,-0.07640037685632706,286.08319091796875,-0.025762882083654404
4860822.794,1507,1488,634013159,217.73,103149700,0.03719381242990494,-0.14470480382442474,285.947021484375,-0.021084943786263466
4860922.794,1507,1488,634013159,217.72,103149701,0.01733972690999508,-0.25021305680274963,285.8035888671875,-0.019115006551146507
4861022.794,1507,1488,634013159,217.71,103149702,-0.00904066301882267,-0.3254423141479492,285.6519470214844,-0.02149897813796997
4861122.794,1507,1488,634013159,217.71,103149702,-0.030914992094039917,-0.3136717975139618,285.52313232421875,-0.022059442475438118
4861222.794,1507,1488,634013159,217.71,103149702,-0.015963923186063766,-0.2108357846736908,285.4218444824219,-0.019780317321419716
4861322.794,1507,1488,634013159,217.71,103149702,0.01384594477713108,-0.10577189177274704,285.33953857421875,-0.0172532107681036
4861422.794,1507,1488,634013159,217.71,103149702,0.06675051152706146,-0.03642214089632034,285.23541259765625,-0.017299378290772438
4861522.794,1503,1488,634013159,217.71,103149702,0.11021079123020172,-0.02611277438700199,285.10565185546875,-0.01976560242474079
4861622.794,1503,1488,634013159,217.71,103149702,0.10473580658435822,-0.05169527232646942,284.9449157714844,-0.02501668781042099
4861722.794,1502,1488,634013159,217.69,103149703,0.047528114169836044,-0.13520312309265137,284.75799560546875,-0.02569950558245182
4861822.794,1502,1488,634013159,217.69,103149703,0.008584787137806416,-0.23740829527378082,284.6260070800781,-0.02073940448462963
4861922.794,1502,1488,634013159,217.69,103149703,-0.015208441764116287,-0.2875429391860962,284.496337890625,-0.018018975853919983
4862022.794,1502,1488,634013158,217.68,103149704,-0.023927120491862297,-0.28443771600723267,284.3793029785156,-0.02152969129383564
4862122.794,1500,1488,634013158,217.68,103149704,-0.03658045828342438,-0.21578922867774963,284.236572265625,-0.02490394562482834
4862222.794,1482,1488,634013158,217.68,103149704,0.011586230248212814,-0.12185294926166534,284.1056823730469,-0.02256489172577858
4862322.794,1478,1488,634013158,217.68,103149705,0.07166889309883118,-0.06894811242818832,284.0203857421875,-0.01905197650194168
4862422.794,1478,1488,634013158,217.68,103149705,0.11748789250850677,-0.07028403878211975,283.92327880859375,-0.019257474690675735
4862522.794,1478,1495,634013158,217.67,103149705,0.1043212041258812,-0.11093971133232117,283.81207275390625,-0.021761272102594376
4862622.794,1478,1495,634013158,217.67,103149705,0.043372660875320435,-0.15640830993652344,283.68341064453125,-0.02252991683781147
4862722.794,1478,1496,634013157,217.66,103149705,0.005188512150198221,-0.17990799248218536,283.5804443359375,-0.0191764235496521
4862822.794,1478,1496,634013157,217.66,103149705,-0.012827444821596146,-0.2088787853717804,283.4764404296875,-0.017005378380417824
4862922.794,1478,1496,634013157,217.66,103149706,-0.033327702432870865,-0.20529718697071075,283.3441162109375,-0.020355727523565292
4863022.794,1478,1496,634013157,217.66,103149706,-0.010676084086298943,-0.1990647315979004,283.2281494140625,-0.02468882128596306
4863122.794,1478,1496,634013157,217.66,103149707,0.01779876835644245,-0.15322113037109375,283.11944580078125,-0.02567085064947605
4863222.794,1478,1496,634013157,217.66,103149707,0.06970467418432236,-0.12212090194225311,283.02215576171875,-0.023647181689739227
4863322.794,1478,1496,634013156,217.65,103149707,0.09479919075965881,-0.12439201772212982,282.92864990234375,-0.020738329738378525
4863422.794,1478,1496,634013156,217.65,103149707,0.12139523029327393,-0.14784979820251465,282.81744384765625,-0.018682405352592468
4863522.794,1478,1496,634013156,217.64,103149707,0.06248241662979126,-0.1655401587486267,282.67791748046875,-0.020356517285108566
4863622.794,1478,1496,634013156,217.64,103149707,-0.005800190381705761,-0.17555110156536102,282.52978515625,-0.021813400089740753
4863722.794,1478,1496,634013156,217.64,103149707,-0.0492895133793354,-0.1729360967874527,282.3963928222656,-0.019931083545088768
4863822.794,1478,1496,634013156,217.64,103149707,-0.03382296860218048,-0.18094322085380554,282.30255126953125,-0.016879519447684288
4863922.794,1478,1496,634013155,217.63,103149708,0.006755569018423557,-0.17362850904464722,282.19097900390625,-0.019882667809724808
4864022.794,1478,1496,634013155,217.63,103149709,0.030463751405477524,-0.1268056035041809,282.0606384277344,-0.025595681741833687
4864122.794,1478,1496,634013155,217.63,103149709,0.06261169910430908,-0.10358618199825287,281.9615478515625,-0.023951273411512375
4864222.794,1478,1496,634013155,217.63,103149709,0.0972432792186737,-0.14088192582130432,281.85748291015625,-0.019368233159184456
4864322.794,1478,1496,634013155,217.62,103149708,0.09924909472465515,-0.17367486655712128,281.722900390625,-0.019044682383537292
4864422.794,1478,1496,634013155,217.62,103149708,0.058863990008831024,-0.1996065378189087,281.5798645019531,-0.02232835814356804
4864522.794,1478,1496,634013154,217.61,103149709,-0.0020374010782688856,-0.2110651582479477,281.4197998046875,-0.023798251524567604
4864622.794,1478,1496,634013154,217.61,103149709,-0.040379300713539124,-0.1865047961473465,281.31683349609375,-0.020025521516799927
4864722.794,1478,1496,634013154,217.61,103149709,-0.02737654186785221,-0.14607301354408264,281.242431640625,-0.01578822173178196
4864822.794,1478,1496,634013154,217.61,103149709,0.0074687255546450615,-0.12211186438798904,281.1341247558594,-0.016846101731061935
4864922.794,1478,1496,634013153,217.61,103149710,0.04931672662496567,-0.1326182633638382,281.00823974609375,-0.022186920046806335
4865022.794,1478,1496,634013153,217.61,103149710,0.06877319514751434,-0.1253059208393097,280.8729553222656,-0.024342797696590424
4865122.794,1478,1482,634013153,217.6,103149710,0.07974838465452194,-0.1372409164905548,280.7642822265625,-0.020539887249469757
4865222.794,1478,1482,634013153,217.6,103149710,0.07211165130138397,-0.18444901704788208,280.6826477050781,-0.01567181386053562
4865322.794,1478,1481,634013152,217.59,103149710,0.04836296662688255,-0.20550820231437683,280.5863342285156,-0.01620078831911087
4865422.794,1478,1478,634013152,217.59,103149710,0.003168857656419277,-0.19582560658454895,280.45806884765625,-0.021751616150140762
4865522.794,1478,1477,634013152,217.59,103149710,-0.03890141844749451,-0.15999451279640198,280.30511474609375,-0.02491522766649723
4865622.794,1480,1491,634013152,217.59,103149710,-0.02351449802517891,-0.13718971610069275,280.1827392578125,-0.021917305886745453
4865722.794,1488,1500,634013151,217.58,103149711,0.03820158541202545,-0.14377306401729584,280.09527587890625,-0.018496915698051453
4865822.794,1488,1500,634013151,217.58,103149711,0.08369643986225128,-0.1645917296409607,279.99688720703125,-0.018605567514896393
4865922.794,1495,1506,634013151,217.58,103149711,0.07163359224796295,-0.15345512330532074,279.9019470214844,-0.01966709829866886
4866022.794,1504,1517,634013151,217.58,103149711,0.056473031640052795,-0.15769381821155548,279.8214416503906,-0.016379766166210175
4866122.794,1504,1509,634013151,217.58,103149711,0.03417351841926575,-0.17327168583869934,279.7528381347656,-0.012999700382351875
4866222.794,1504,1506,634013151,217.58,103149711,0.021573074162006378,-0.16271376609802246,279.65673828125,-0.015554221346974373
4866322.794,1504,1505,634013150,217.58,103149711,0.00023332754790317267,-0.1475415974855423,279.49212646484375,-0.02236921899020672
4866422.794,1504,1503,634013149,217.59,103149712,-0.005537600256502628,-0.12995482981204987,279.34429931640625,-0.026033347472548485
4866522.794,1504,1502,634013149,217.59,103149712,0.006585008464753628,-0.13891364634037018,279.21875,-0.022671464830636978
4866622.794,1504,1502,634013149,217.59,103149712,0.04297976568341255,-0.165001779794693,279.1258544921875,-0.01602792553603649
4866722.794,1504,1502,634013149,217.58,103149712,0.08031152933835983,-0.19998808205127716,279.04180908203125,-0.01352772768586874
4866822.794,1504,1502,634013149,217.58,103149712,0.07089658081531525,-0.2075299620628357,278.9535827636719,-0.0165700800716877
4866922.794,1504,1502,634013148,217.59,103149711,0.03184514492750168,-0.180498406291008,278.8546142578125,-0.019482726231217384
4867022.794,1504,1502,634013148,217.59,103149711,-0.004422688856720924,-0.13676531612873077,278.7633972167969,-0.01757318526506424
4867122.794,1504,1502,634013148,217.6,103149711,0.004992147907614708,-0.12470807135105133,278.66070556640625,-0.015384284779429436
4867222.794,1504,1502,634013148,217.6,103149711,0.01819707825779915,-0.12215296924114227,278.55841064453125,-0.017014402896165848
4867322.794,1504,1502,634013148,217.6,103149711,0.024783289059996605,-0.12811291217803955,278.4595947265625,-0.019990598782896996
4867422.794,1504,1502,634013147,217.61,103149711,0.029331494122743607,-0.14861926436424255,278.375732421875,-0.01928703673183918
4867522.794,1504,1502,634013147,217.61,103149711,0.05193210393190384,-0.17990608513355255,278.3218994140625,-0.014222538098692894
4867622.794,1504,1502,634013147,217.61,103149711,0.07181614637374878,-0.20262542366981506,278.24639892578125,-0.012255759909749031
4867722.794,1504,1502,634013147,217.61,103149710,0.048257820308208466,-0.20535315573215485,278.149658203125,-0.0180366151034832
4867822.794,1504,1502,634013147,217.61,103149710,0.006570284254848957,-0.1714259535074234,278.04302978515625,-0.023289605975151062
4867922.794,1504,1502,634013146,217.62,103149710,-0.00962731521576643,-0.15077441930770874,277.94232177734375,-0.020657788962125778
4868022.794,1504,1502,634013146,217.62,103149710,0.012945354916155338,-0.1342746913433075,277.8954772949219,-0.014127297326922417
4868122.794,1504,1502,634013146,217.62,103149710,0.048419784754514694,-0.13138052821159363,277.8599853515625,-0.01168033853173256
4868222.794,1504,1502,634013146,217.62,103149710,0.05543901026248932,-0.1434125304222107,277.8022155761719,-0.014377471059560776
4868322.794,1504,1502,634013145,217.62,103149710,0.04544910043478012,-0.16524697840213776,277.72589111328125,-0.015832390636205673
4868422.794,1504,1502,634013145,217.63,103149709,0.02891264110803604,-0.16782453656196594,277.6517028808594,-0.015181029215455055
4868522.794,1504,1502,634013145,217.63,103149709,0.025518758222460747,-0.1715015321969986,277.5567321777344,-0.015797223895788193
4868622.794,1504,1502,634013145,217.63,103149709,0.023822437971830368,-0.17703771591186523,277.4519958496094,-0.01739172637462616
4868722.794,1504,1502,634013144,217.64,103149711,0.023439068347215652,-0.17838667333126068,277.32415771484375,-0.019232263788580894
4868822.794,1504,1502,634013144,217.66,103149711,0.023677432909607887,-0.1492518186569214,277.22998046875,-0.0189284086227417
4868922.794,1504,1502,634013144,217.66,103149711,0.03698341175913811,-0.14028063416481018,277.1689147949219,-0.013981986790895462
4869022.794,1504,1502,634013144,217.66,103149711,0.06276372820138931,-0.16519398987293243,277.119384765625,-0.009884465485811234
4869122.794,1504,1502,634013144,217.66,103149711,0.06038837879896164,-0.18012528121471405,277.0440979003906,-0.011866987682878971
4869222.794,1504,1501,634013143,217.66,103149712,0.02800895832479,-0.17766304314136505,276.9506530761719,-0.016629451885819435
4869322.794,1504,1501,634013143,217.66,103149712,0.0004000832268502563,-0.15030987560749054,276.843017578125,-0.01768050342798233
4869422.794,1504,1500,634013143,217.66,103149712,-0.0070487260818481445,-0.1411501169204712,276.7516174316406,-0.0145720224827528
4869522.794,1504,1500,634013143,217.67,103149712,0.01952951028943062,-0.1352810561656952,276.65911865234375,-0.01165985781699419
4869622.794,1504,1500,634013143,217.67,103149712,0.048214640468358994,-0.1503889262676239,276.5890197753906,-0.013943931087851524
4869722.794,1504,1500,634013143,217.66,103149712,0.04961986839771271,-0.15267813205718994,276.5079650878906,-0.017007559537887573
4869822.794,1504,1500,634013142,217.67,103149713,0.040989816188812256,-0.1787882000207901,276.42254638671875,-0.015345006249845028
4869922.794,1504,1500,634013142,217.67,103149713,0.04529377073049545,-0.19576972723007202,276.3750915527344,-0.011640602722764015
4870022.794,1504,1500,634013142,217.67,103149712,0.039969973266124725,-0.18400248885154724,276.2970275878906,-0.011598736047744751
4870122.794,1504,1500,634013142,217.67,103149712,0.009913948364555836,-0.1618989259004593,276.2177734375,-0.01437994185835123
4870222.794,1504,1500,634013141,217.67,103149713,0.0021841530688107014,-0.14002379775047302,276.1548767089844,-0.015073307789862156
4870322.794,1504,1500,634013141,217.67,103149713,0.004192381165921688,-0.12804727256298065,276.1092529296875,-0.01307140663266182
4870422.794,1504,1500,634013141,217.67,103149713,0.03266488015651703,-0.1381874531507492,276.0566101074219,-0.010750917717814445
4870522.794,1504,1500,634013141,217.67,103149713,0.04852121323347092,-0.17185993492603302,276.0006408691406,-0.010942867957055569
4870622.794,1504,1500,634013141,217.67,103149713,0.05674564093351364,-0.18514281511306763,275.9299621582031,-0.012793458066880703
4870722.794,1504,1500,634013141,217.68,103149714,0.038765691220760345,-0.18168418109416962,275.85565185546875,-0.014773007482290268
4870822.794,1504,1500,634013141,217.68,103149714,0.014242641627788544,-0.17050039768218994,275.802490234375,-0.013527365401387215
4870922.794,1504,1500,634013141,217.68,103149713,0.015091843903064728,-0.15830737352371216,275.7567138671875,-0.01117243804037571
4871022.794,1504,1500,634013141,217.68,103149713,0.024273192510008812,-0.15950539708137512,275.70904541015625,-0.011907187290489674
4871122.794,1504,1500,634013140,217.68,103149714,0.02826831489801407,-0.15400271117687225,275.65631103515625,-0.01398798543959856
4871222.794,1504,1500,634013140,217.68,103149714,0.028550833463668823,-0.14481666684150696,275.6192932128906,-0.012321686372160912
4871322.794,1504,1500,634013140,217.68,103149714,0.0445658303797245,-0.15371564030647278,275.5623779296875,-0.008467357605695724
4871422.794,1504,1500,634013140,217.68,103149714,0.05425945296883583,-0.17354810237884521,275.5332946777344,-0.006796499714255333
4871522.794,1504,1500,634013139,217.68,103149713,0.047122303396463394,-0.16923284530639648,275.46173095703125,-0.010167649015784264
4871622.794,1504,1500,634013139,217.68,103149713,0.018055306747555733,-0.16109010577201843,275.3631591796875,-0.014796864241361618
4871722.794,1504,1483,634013139,217.68,103149714,-0.00003575126902433112,-0.15340840816497803,275.3101806640625,-0.014335043728351593
4871822.794,1504,1480,634013139,217.69,103149715,0.018935449421405792,-0.15526838600635529,275.2688293457031,-0.01016143150627613
4871922.794,1504,1480,634013139,217.69,103149715,0.048363976180553436,-0.16546356678009033,275.23663330078125,-0.009553220123052597
4872022.794,1504,1480,634013138,217.69,103149715,0.05250415951013565,-0.16533906757831573,275.1824951171875,-0.010543176904320717
4872122.794,1504,1480,634013138,217.69,103149715,0.04947652667760849,-0.17263075709342957,275.1329650878906,-0.009782833978533745
4872222.794,1504,1480,634013138,217.69,103149715,0.03995684161782265,-0.1707565039396286,275.07452392578125,-0.008454096503555775
4872322.794,1504,1480,634013138,217.69,103149715,0.032702893018722534,-0.16038714349269867,275.03314208984375,-0.008011085912585258
4872422.794,1504,1480,634013138,217.69,103149715,0.02386680245399475,-0.15368816256523132,274.97979736328125,-0.009182245470583439
4872522.794,1504,1480,634013138,217.69,103149715,0.02291101962327957,-0.1483265906572342,274.88726806640625,-0.010700087994337082
4872622.794,1504,1480,634013138,217.69,103149715,0.01721855439245701,-0.14471594989299774,274.81170654296875,-0.012105973437428474
4872722.794,1504,1480,634013138,217.7,103149715,0.0243857279419899,-0.15087582170963287,274.76934814453125,-0.01020798273384571
4872822.794,1504,1480,634013138,217.7,103149715,0.03790916129946709,-0.16592225432395935,274.73773193359375,-0.00643325038254261
4872922.794,1504,1480,634013138,217.7,103149715,0.055707983672618866,-0.18084809184074402,274.6983337402344,-0.006795419845730066
4873022.794,1504,1480,634013137,217.7,103149715,0.0455014742910862,-0.18088334798812866,274.63458251953125,-0.01066746935248375
4873122.794,1504,1480,634013137,217.7,103149715,0.015750840306282043,-0.15807870030403137,274.56842041015625,-0.012032940983772278
4873222.794,1504,1480,634013137,217.7,103149714,0.009071949869394302,-0.14438767731189728,274.53436279296875,-0.009097661823034286
4873322.794,1504,1480,634013137,217.7,103149714,0.02672993764281273,-0.15442490577697754,274.517333984375,-0.0066991327330470085
4873422.794,1504,1480,634013137,217.71,103149715,0.03297485411167145,-0.1498505175113678,274.5029296875,-0.006746217608451843
4873522.794,1504,1480,634013137,217.71,103149715,0.038338132202625275,-0.1549726128578186,274.4632263183594,-0.008369723334908485
4873622.794,1504,1480,634013137,217.71,103149715,0.03221896290779114,-0.1602672040462494,274.425537109375,-0.008172720670700073
4873722.794,1504,1480,634013136,217.71,103149715,0.03510561212897301,-0.1580890566110611,274.43060302734375,-0.006971517577767372
4873822.794,1504,1480,634013136,217.71,103149715,0.03776128590106964,-0.16844145953655243,274.37359619140625,-0.00873694196343422
4873922.794,1504,1480,634013136,217.71,103149715,0.024732574820518494,-0.1631418615579605,274.3089599609375,-0.01081574521958828
4874022.794,1504,1480,634013136,217.71,103149715,0.015227068215608597,-0.16109254956245422,274.2712097167969,-0.01010472048074007
4874122.794,1504,1480,634013136,217.72,103149717,0.02200375124812126,-0.15988148748874664,274.25579833984375,-0.007053392007946968
4874222.794,1504,1480,634013136,217.71,103149716,0.03241173177957535,-0.15872809290885925,274.2544860839844,-0.003667854703962803
4874322.794,1504,1480,634013136,217.71,103149716,0.049339767545461655,-0.15992362797260284,274.22955322265625,-0.003195959609001875
4874422.794,1504,1480,634013135,217.72,103149716,0.04455088824033737,-0.15889260172843933,274.14788818359375,-0.006570723839104176
4874522.794,1504,1480,634013135,217.72,103149716,0.032654888927936554,-0.15047991275787354,274.0584716796875,-0.010787715204060078
4874622.794,1504,1480,634013135,217.72,103149716,0.008967342786490917,-0.15052388608455658,274.0079650878906,-0.010666594840586185
4874722.794,1504,1480,634013135,217.72,103149716,0.028155826032161713,-0.16163933277130127,273.9827575683594,-0.006946931593120098
4874822.794,1504,1480,634013134,217.72,103149717,0.03501666709780693,-0.17490768432617188,273.974853515625,-0.004529670346528292
4874922.794,1504,1480,634013134,217.72,103149717,0.04170459508895874,-0.1777564436197281,273.96990966796875,-0.00578265730291605
4875022.794,1504,1480,634013134,217.72,103149717,0.031424861401319504,-0.15900394320487976,273.96783447265625,-0.006284589413553476
4875122.794,1504,1480,634013134,217.74,103149717,0.02550656907260418,-0.1548815369606018,273.96429443359375,-0.004757154732942581
4875222.794,1504,1480,634013134,217.75,103149716,0.03103221021592617,-0.15830497443675995,273.9436950683594,-0.004662804305553436
4875322.794,1504,1480,634013134,217.75,103149716,0.0348162017762661,-0.15759587287902832,273.9219055175781,-0.006830778904259205
4875422.794,1504,1480,634013133,217.74,103149716,0.028339873999357224,-0.15303519368171692,273.89898681640625,-0.008313342928886414
4875522.794,1504,1480,634013133,217.74,103149716,0.022484734654426575,-0.16263484954833984,273.86614990234375,-0.006774737033993006
4875622.794,1504,1480,634013133,217.74,103149716,0.034154340624809265,-0.16327987611293793,273.8492736816406,-0.004243107512593269
4875722.794,1504,1480,634013133,217.74,103149716,0.038290929049253464,-0.16925807297229767,273.83026123046875,-0.003954743966460228
4875822.794,1504,1480,634013131,217.75,103149715,0.039321161806583405,-0.1749500334262848,273.7939147949219,-0.005021808203309774
4875922.794,1504,1480,634013131,217.75,103149715,0.03148581087589264,-0.16822725534439087,273.7613525390625,-0.006980085279792547
4876022.794,1504,1480,634013131,217.75,103149715,0.020549500361084938,-0.1569320112466812,273.72503662109375,-0.00679426733404398
4876122.794,1504,1480,634013131,217.74,103149716,0.024377698078751564,-0.1403113603591919,273.68536376953125,-0.0043983119539916515
4876222.794,1504,1480,634013131,217.75,103149716,0.02978435903787613,-0.14666783809661865,273.666748046875,-0.0019261643756181002
4876322.794,1504,1480,634013131,217.75,103149716,0.041948217898607254,-0.14908483624458313,273.643310546875,-0.002718874718993902
4876422.794,1504,1480,634013131,217.75,103149716,0.03700883686542511,-0.15499347448349,273.5961608886719,-0.005966112948954105
4876522.794,1504,1480,634013130,217.75,103149716,0.023775389418005943,-0.15851375460624695,273.5489196777344,-0.00665382482111454
4876622.794,1504,1480,634013130,217.75,103149716,0.029102331027388573,-0.16785037517547607,273.5047607421875,-0.004894065670669079
4876722.794,1504,1480,634013129,217.76,103149716,0.03702499344944954,-0.17920710146427155,273.46990966796875,-0.0038943348918110132
4876822.794,1504,1480,634013129,217.76,103149716,0.027795426547527313,-0.1692918986082077,273.4402770996094,-0.004866115283221006
4876922.794,1504,1480,634013129,217.76,103149715,0.02102602645754814,-0.1508844792842865,273.4246826171875,-0.004272080026566982
4877022.794,1504,1480,634013129,217.76,103149715,0.02308749593794346,-0.14499083161354065,273.43975830078125,-0.001481001963838935
4877122.794,1504,1480,634013129,217.77,103149714,0.03393254056572914,-0.15839755535125732,273.4535217285156,-0.0010160328820347786
4877222.794,1504,1480,634013129,217.77,103149714,0.05089498311281204,-0.1558954268693924,273.4290466308594,-0.0032790256664156914
4877322.794,1504,1480,634013128,217.77,103149715,0.042845409363508224,-0.15523581206798553,273.39178466796875,-0.0060354359447956085
4877422.794,1504,1480,634013128,217.77,103149715,0.03168516978621483,-0.16001053154468536,273.38787841796875,-0.0055631170980632305
4877522.794,1504,1480,634013128,217.79,103149714,0.016533801332116127,-0.15501026809215546,273.418212890625,-0.0031808572821319103
4877622.794,1504,1480,634013128,217.79,103149714,0.025697682052850723,-0.16664019227027893,273.4398193359375,-0.001407598378136754
4877722.794,1504,1480,634013128,217.79,103149714,0.03264657407999039,-0.17127898335456848,273.4203796386719,-0.00161252380348742
4877822.794,1504,1480,634013128,217.79,103149714,0.032615967094898224,-0.16634725034236908,273.39404296875,-0.0035188444890081882
4877922.794,1504,1480,634013127,217.8,103149713,0.03379049897193909,-0.15418657660484314,273.39666748046875,-0.003688073717057705
4878022.794,1504,1480,634013127,217.8,103149713,0.028635583817958832,-0.15326938033103943,273.4031066894531,-0.0023455696646124125
4878122.794,1504,1480,634013127,217.81,103149712,0.03005768358707428,-0.1528501957654953,273.416259765625,-0.0005499016842804849
4878222.794,1504,1480,634013127,217.81,103149712,0.030034208670258522,-0.15881310403347015,273.41864013671875,-0.0012824818259105086
4878322.794,1504,1480,634013127,217.81,103149712,0.029511788859963417,-0.16362600028514862,273.4001770019531,-0.003494095057249069
4878422.794,1504,1480,634013127,217.81,103149712,0.027568817138671875,-0.16048555076122284,273.39208984375,-0.0031718022655695677
4878522.794,1504,1480,634013127,217.82,103149712,0.03000451624393463,-0.16828653216362,273.40704345703125,-0.0009830559138208628
4878622.794,1504,1480,634013127,217.82,103149712,0.03809122368693352,-0.16098342835903168,273.4110107421875,-0.000940385740250349
4878722.794,1504,1480,634013126,217.8,103149712,0.026672624051570892,-0.16217049956321716,273.42010498046875,-0.002301187487319112
4878822.794,1504,1480,634013126,217.8,103149712,0.014691377058625221,-0.1498219072818756,273.4471130371094,-0.001736063277348876
4878922.794,1504,1480,634013125,217.81,103149712,0.02579546719789505,-0.1511014997959137,273.471435546875,0.00002316864083695691
4879022.794,1504,1480,634013125,217.81,103149712,0.03608434647321701,-0.15148907899856567,273.48291015625,0.000507039949297905
4879122.794,1504,1480,634013125,217.81,103149712,0.05086718499660492,-0.16887040436267853,273.489013671875,-0.0010410039685666561
4879222.794,1504,1480,634013125,217.81,103149712,0.04161083698272705,-0.16068218648433685,273.47674560546875,-0.0025144906248897314
4879322.794,1504,1480,634013125,217.81,103149712,0.02634705975651741,-0.16929104924201965,273.462646484375,-0.0021767206490039825
4879422.794,1504,1480,634013125,217.81,103149712,0.01763877458870411,-0.17549866437911987,273.4825134277344,-0.0003072034160140902
4879522.794,1504,1480,634013125,217.81,103149710,0.018810411915183067,-0.17056059837341309,273.51556396484375,0.001609987928532064
4879622.794,1504,1480,634013125,217.81,103149710,0.027192190289497375,-0.16274310648441315,273.52471923828125,0.0016180642414838076
4879722.794,1504,1480,634013125,217.82,103149711,0.030258018523454666,-0.15351758897304535,273.5273132324219,-0.00044233526568859816
4879822.794,1504,1480,634013125,217.82,103149711,0.03725169226527214,-0.1377437710762024,273.5247802734375,-0.0016968154814094305
4879922.794,1504,1480,634013124,217.83,103149711,0.03372327983379364,-0.14888113737106323,273.5237121582031,-0.0007779799634590745
4880022.794,1504,1480,634013124,217.83,103149711,0.03708535060286522,-0.15711918473243713,273.53192138671875,0.000760922790504992
4880122.794,1504,1480,634013124,217.83,103149710,0.03580654785037041,-0.17868700623512268,273.5507507324219,0.0012410811614245176
4880222.794,1504,1480,634013124,217.83,103149710,0.02705942839384079,-0.1758217066526413,273.57208251953125,0.0008326404495164752
4880322.794,1504,1480,634013124,217.83,103149710,0.009072843007743359,-0.16299626231193542,273.6069030761719,0.0008867794531397521
4880422.794,1504,1480,634013124,217.83,103149710,0.02345874160528183,-0.15703870356082916,273.63812255859375,0.0017582031432539225
4880522.794,1504,1480,634013124,217.83,103149710,0.023958880454301834,-0.15562108159065247,273.65740966796875,0.0011265542125329375
4880622.794,1504,1480,634013124,217.83,103149710,0.03404993191361427,-0.15218870341777802,273.6690673828125,-0.0003682857204694301
4880722.794,1504,1480,634013124,217.83,103149710,0.0359240286052227,-0.15287373960018158,273.6805419921875,0.0002941385027952492
4880822.794,1504,1480,634013124,217.83,103149710,0.03691156208515167,-0.14622260630130768,273.7025146484375,0.002823800314217806
4880922.794,1504,1480,634013124,217.83,103149709,0.05081166326999664,-0.16640087962150574,273.6949462890625,0.0034839995205402374
4881022.794,1504,1480,634013124,217.83,103149709,0.03945094719529152,-0.18113300204277039,273.6654052734375,0.002020567888393998
4881122.794,1504,1480,634013123,217.84,103149709,0.02656623348593712,-0.1695512980222702,273.63726806640625,0.0001606559380888939
4881222.794,1504,1480,634013123,217.84,103149709,0.011711608618497849,-0.16730564832687378,273.64776611328125,-0.00031127844704315066
4881322.794,1504,1480,634013123,217.84,103149709,0.01384190283715725,-0.16072800755500793,273.68585205078125,0.0015184602234512568
4881422.794,1504,1480,634013123,217.84,103149709,0.023878950625658035,-0.14974644780158997,273.7299499511719,0.004010514356195927
4881522.794,1504,1480,634013122,217.83,103149709,0.03702882304787636,-0.1399059146642685,273.765380859375,0.004207665100693703
4881622.794,1504,1480,634013122,217.83,103149709,0.042006947100162506,-0.15130700170993805,273.7859191894531,0.002376719145104289
4881722.794,1504,1480,634013123,217.85,103149708,0.036473505198955536,-0.15006762742996216,273.80712890625,0.0007658782415091991
4881822.794,1504,1480,634013123,217.85,103149708,0.03718844801187515,-0.16244027018547058,273.8193359375,0.0015524139162153006
4881922.794,1504,1480,634013122,217.83,103149709,0.038746267557144165,-0.18038223683834076,273.8244934082031,0.002647722139954567
4882022.794,1504,1480,634013122,217.83,103149709,0.028626160696148872,-0.18429557979106903,273.8521728515625,0.0030614198185503483
4882122.794,1504,1480,634013122,217.83,103149709,0.016200942918658257,-0.17300860583782196,273.8625793457031,0.0029622353613376617
4882222.794,1504,1480,634013122,217.83,103149709,0.014020444825291634,-0.15419748425483704,273.87652587890625,0.002542076865211129
4882322.794,1504,1480,634013122,217.84,103149708,0.017244940623641014,-0.14028730988502502,273.90106201171875,0.0034595350734889507
4882422.794,1504,1480,634013122,217.84,103149708,0.0433349683880806,-0.14272460341453552,273.92236328125,0.0036457800306379795
4882522.794,1504,1480,634013122,217.84,103149707,0.05083019286394119,-0.14639198780059814,273.933837890625,0.0029480447992682457
4882622.794,1504,1480,634013122,217.84,103149707,0.04508388042449951,-0.1550634205341339,273.9521789550781,0.0027653540018945932
4882722.794,1504,1480,634013122,217.85,103149708,0.03553467243909836,-0.16631579399108887,273.96331787109375,0.0028770575299859047
4882822.794,1504,1480,634013122,217.85,103149708,0.03095359355211258,-0.17794546484947205,273.9764099121094,0.0030248709954321384
4882922.794,1504,1480,634013121,217.85,103149708,0.023780841380357742,-0.1745867282152176,273.986083984375,0.003042821306735277
4883022.794,1504,1480,634013121,217.85,103149708,0.018400117754936218,-0.16882222890853882,274.0097961425781,0.00330843823030591
4883122.794,1504,1480,634013121,217.85,103149708,0.021597066894173622,-0.15448521077632904,274.0635070800781,0.003637793706730008
4883222.794,1504,1480,634013121,217.85,103149708,0.036948345601558685,-0.14364224672317505,274.1263122558594,0.004291979596018791
4883322.794,1504,1480,634013121,217.85,103149707,0.0435640811920166,-0.1430559754371643,274.1795349121094,0.005058627109974623
4883422.794,1504,1480,634013121,217.85,103149707,0.049810416996479034,-0.15871074795722961,274.2099304199219,0.004204045049846172
4883522.794,1504,1480,634013121,217.85,103149707,0.04235045611858368,-0.16864827275276184,274.2264709472656,0.00300473440438509
4883622.794,1504,1480,634013121,217.85,103149707,0.029933810234069824,-0.17149530351161957,274.2495422363281,0.002653255593031645
4883722.794,1504,1480,634013120,217.85,103149707,0.024466704577207565,-0.16321180760860443,274.27581787109375,0.003967787139117718
4883822.794,1504,1480,634013120,217.85,103149707,0.025170324370265007,-0.15828751027584076,274.316162109375,0.005211889743804932
4883922.794,1504,1480,634013120,217.85,103149707,0.025409115478396416,-0.15892206132411957,274.3580627441406,0.0054692598059773445
4884022.794,1504,1480,634013120,217.85,103149707,0.031850650906562805,-0.15617960691452026,274.38702392578125,0.004411168396472931
4884122.794,1504,1480,634013120,217.85,103149706,0.02289312146604061,-0.15091121196746826,274.419189453125,0.004085277672857046
4884222.794,1504,1480,634013120,217.85,103149706,0.03325105458498001,-0.16123813390731812,274.4496765136719,0.004644928500056267
4884322.794,1504,1480,634013119,217.85,103149706,0.03613731265068054,-0.16950969398021698,274.4732971191406,0.00486950296908617
4884422.794,1504,1480,634013119,217.85,103149706,0.03633987531065941,-0.17463181912899017,274.5168151855469,0.004268265794962645
4884522.794,1504,1480,634013119,217.85,103149706,0.028035776689648628,-0.16136424243450165,274.5395812988281,0.003943200223147869
4884622.794,1504,1480,634013119,217.85,103149706,0.025426454842090607,-0.15922825038433075,274.5574645996094,0.004759388975799084
4884722.794,1504,1480,634013119,217.85,103149706,0.021483920514583588,-0.16047987341880798,274.6038513183594,0.0063238078728318214
4884822.794,1504,1480,634013119,217.85,103149706,0.026798749342560768,-0.16709354519844055,274.6351318359375,0.006210564635694027
4884922.794,1504,1480,634013119,217.85,103149705,0.028263472020626068,-0.1547243893146515,274.69635009765625,0.004857203457504511
4885022.794,1504,1480,634013119,217.85,103149705,0.03102453052997589,-0.1537221223115921,274.7418212890625,0.0037452143151313066
4885122.794,1504,1480,634013119,217.85,103149705,0.035779066383838654,-0.1454039067029953,274.7964172363281,0.004121131729334593
4885222.794,1504,1480,634013118,217.85,103149705,0.0411725789308548,-0.15687167644500732,274.8353271484375,0.005594992078840733
4885322.794,1504,1480,634013118,217.85,103149705,0.028575077652931213,-0.15988518297672272,274.8592529296875,0.0065592434257268906
4885422.794,1504,1480,634013118,217.85,103149705,0.03225784748792648,-0.16805024445056915,274.85626220703125,0.005978134460747242
4885522.794,1504,1480,634013118,217.85,103149705,0.019057976081967354,-0.17965084314346313,274.88671875,0.005516274832189083
4885622.794,1504,1480,634013118,217.85,103149705,0.017366444692015648,-0.16660843789577484,274.9283752441406,0.005738752894103527
4885722.794,1504,1480,634013117,217.85,103149704,0.026668183505535126,-0.16344797611236572,274.9693298339844,0.005776273086667061
4885822.794,1504,1480,634013117,217.85,103149704,0.03345603123307228,-0.15670624375343323,274.9814453125,0.005113528110086918
4885922.794,1504,1480,634013117,217.85,103149703,0.03630995377898216,-0.14749620854854584,275.0101318359375,0.005250310525298119
4886022.794,1504,1480,634013117,217.86,103149703,0.0365147739648819,-0.14535611867904663,275.01629638671875,0.005756384693086147
4886122.794,1504,1480,634013117,217.86,103149703,0.03866207227110863,-0.16077406704425812,275.06414794921875,0.007326605264097452
4886222.794,1504,1480,634013117,217.86,103149703,0.03859558328986168,-0.17211313545703888,275.0866394042969,0.007064723409712315
4886322.794,1504,1480,634013116,217.86,103149703,0.0368712842464447,-0.16943326592445374,275.1328125,0.005554565228521824
4886422.794,1504,1480,634013116,217.86,103149703,0.019762413576245308,-0.16459229588508606,275.1525573730469,0.004389827139675617
4886522.794,1504,1480,634013116,217.86,103149702,0.01941625215113163,-0.14764319360256195,275.1956787109375,0.004654653836041689
4886622.794,1504,1480,634013116,217.86,103149702,0.02696997858583927,-0.15080967545509338,275.22979736328125,0.006325493101030588
4886722.794,1504,1480,634013115,217.87,103149702,0.02991470694541931,-0.15660062432289124,275.26763916015625,0.007587750442326069
4886822.794,1504,1480,634013115,217.87,103149702,0.039427660405635834,-0.16836732625961304,275.297119140625,0.0071329777128994465
4886922.794,1504,1480,634013115,217.88,103149702,0.04297983646392822,-0.16338786482810974,275.30206298828125,0.006177359726279974
4887022.794,1504,1480,634013115,217.88,103149703,0.03897760063409805,-0.1725206822156906,275.31646728515625,0.005776186939328909
4887122.794,1504,1480,634013115,217.88,103149703,0.027737967669963837,-0.15841993689537048,275.33831787109375,0.005642089061439037
4887222.794,1504,1480,634013115,217.88,103149703,0.02547583542764187,-0.15823042392730713,275.365478515625,0.006242124829441309
4887322.794,1504,1480,634013114,217.89,103149702,0.024118296802043915,-0.1551591157913208,275.41094970703125,0.0064897239208221436
4887422.794,1504,1480,634013114,217.89,103149702,0.012800123542547226,-0.15033066272735596,275.4754638671875,0.006771918386220932
4887522.794,1504,1480,634013113,217.89,103149702,0.03511913865804672,-0.1427026242017746,275.5453796386719,0.007042521610856056
4887622.794,1504,1480,634013113,217.89,103149702,0.04297208786010742,-0.15403322875499725,275.5384216308594,0.006897441111505032
4887722.794,1504,1480,634013113,217.89,103149702,0.045139554888010025,-0.16988146305084229,275.5509033203125,0.006045367568731308
4887822.794,1504,1480,634013113,217.89,103149702,0.041473113000392914,-0.17671406269073486,275.56195068359375,0.0059096491895616055
4887922.794,1504,1480,634013113,217.89,103149702,0.03309127688407898,-0.16412875056266785,275.5744934082031,0.006198897957801819
4888022.794,1504,1480,634013113,217.89,103149702,0.020978810265660286,-0.15953506529331207,275.5960693359375,0.0073579479940235615
4888122.794,1504,1480,634013112,217.9,103149702,0.0191266518086195,-0.16556678712368011,275.6287841796875,0.008020646870136261
4888222.794,1504,1480,634013112,217.9,103149702,0.028620772063732147,-0.1624414324760437,275.6686706542969,0.0073379036039114
4888322.794,1504,1480,634013113,217.9,103149701,0.03412049263715744,-0.15254181623458862,275.7030334472656,0.006095690652728081
4888422.794,1504,1480,634013113,217.9,103149701,0.042717307806015015,-0.1443745493888855,275.7301330566406,0.006335843354463577
4888522.794,1504,1480,634013112,217.9,103149701,0.03480421006679535,-0.15166506171226501,275.7601318359375,0.006971275899559259
4888622.794,1504,1480,634013112,217.9,103149701,0.03592182695865631,-0.15703265368938446,275.81103515625,0.00703013688325882
4888722.794,1504,1480,634013112,217.91,103149701,0.025563394650816917,-0.15911737084388733,275.869140625,0.006970144808292389
4888822.794,1504,1480,634013112,217.91,103149701,0.022653719410300255,-0.15757203102111816,275.9207763671875,0.006869765929877758
4888922.794,1504,1480,634013112,217.91,103149701,0.020338721573352814,-0.15799681842327118,275.9622802734375,0.006736325565725565
4889022.794,1504,1480,634013111,217.9,103149701,0.024501701816916466,-0.15541547536849976,275.99090576171875,0.007400658912956715
4889122.794,1504,1480,634013111,217.9,103149701,0.026250693947076797,-0.1658368855714798,276.0483703613281,0.007409704849123955
4889222.794,1504,1480,634013111,217.9,103149701,0.04271000251173973,-0.16732951998710632,276.1183166503906,0.006818167399615049
4889322.794,1504,1480,634013111,217.91,103149701,0.03595427796244621,-0.1639527976512909,276.1668395996094,0.006561411544680595
4889422.794,1504,1480,634013111,217.91,103149701,0.028265418484807014,-0.1550346165895462,276.2229919433594,0.0073715690523386
4889522.794,1504,1480,634013111,217.91,103149701,0.03172612935304642,-0.15655606985092163,276.28131103515625,0.008332938887178898
4889622.794,1504,1480,634013111,217.91,103149701,0.0334184356033802,-0.15850761532783508,276.31719970703125,0.007843127474188805
4889722.794,1504,1480,634013111,217.92,103149701,0.025332503020763397,-0.15325284004211426,276.33489990234375,0.006754662375897169
4889822.794,1504,1480,634013111,217.92,103149701,0.01926944963634014,-0.1487247496843338,276.3524475097656,0.00626574270427227
4889922.794,1504,1480,634013110,217.92,103149701,0.03001340851187706,-0.1532331109046936,276.37811279296875,0.007093934807926416
4890022.794,1504,1480,634013110,217.92,103149701,0.03521723672747612,-0.16140805184841156,276.39178466796875,0.007641654461622238
4890122.794,1504,1480,634013110,217.92,103149700,0.03997935727238655,-0.1646007001399994,276.43695068359375,0.007620052434504032
4890222.794,1504,1480,634013110,217.92,103149700,0.03736920654773712,-0.16658371686935425,276.5091552734375,0.007260015234351158
4890322.794,1504,1480,634013110,217.93,103149700,0.02758491039276123,-0.16739392280578613,276.5387878417969,0.0071115391328930855
4890422.794,1504,1480,634013110,217.93,103149700,0.02468789555132389,-0.16285747289657593,276.59228515625,0.007439099717885256
4890522.794,1504,1480,634013110,217.93,103149700,0.030769217759370804,-0.16310766339302063,276.63427734375,0.008237062022089958
4890622.794,1504,1480,634013110,217.93,103149700,0.03608495369553566,-0.16003474593162537,276.6687316894531,0.008259985595941544
4890722.794,1504,1480,634013110,217.94,103149701,0.03397394344210625,-0.1554112732410431,276.70672607421875,0.008039310574531555
4890822.794,1504,1480,634013110,217.94,103149701,0.04090295359492302,-0.15753386914730072,276.7447509765625,0.00800577737390995
4890922.794,1504,1480,634013109,217.94,103149700,0.0351262092590332,-0.16207535564899445,276.78802490234375,0.007746587507426739
4891022.794,1504,1480,634013109,217.94,103149700,0.0311308354139328,-0.16526247560977936,276.81427001953125,0.007355598267167807
4891122.794,1504,1480,634013109,217.94,103149700,0.030774753540754318,-0.16034163534641266,276.84954833984375,0.0074715567752718925
4891222.794,1504,1480,634013109,217.94,103149700,0.029915517196059227,-0.1554723083972931,276.908447265625,0.007470197509974241
4891322.794,1504,1480,634013109,217.95,103149701,0.032163143157958984,-0.14639978110790253,276.9609375,0.007896153256297112
4891422.794,1504,1480,634013109,217.97,103149700,0.028057411313056946,-0.15013515949249268,277.0145263671875,0.007740955334156752
4891522.794,1504,1480,634013109,217.97,103149700,0.031704872846603394,-0.1611345410346985,277.07000732421875,0.007029603235423565
4891622.794,1504,1480,634013109,217.97,103149700,0.030962388962507248,-0.16392596065998077,277.0945739746094,0.007437888067215681
4891722.794,1504,1480,634013109,217.98,103149700,0.0296990517526865,-0.1661098748445511,277.1242370605469,0.00786280632019043
4891822.794,1504,1480,634013109,217.98,103149700,0.027423087507486343,-0.16686560213565826,277.16192626953125,0.008823635056614876
4891922.794,1504,1480,634013109,217.98,103149700,0.03174123167991638,-0.1678086817264557,277.2051086425781,0.008598645217716694
4892022.794,1504,1480,634013109,217.98,103149700,0.02968670055270195,-0.15878906846046448,277.2289123535156,0.007842387072741985
4892122.794,1504,1480,634013109,217.99,103149700,0.0262557715177536,-0.14959248900413513,277.275146484375,0.007514464668929577
4892222.794,1504,1480,634013109,217.99,103149700,0.02736826054751873,-0.1520480513572693,277.31201171875,0.007500015199184418
4892322.794,1504,1480,634013108,217.99,103149700,0.03045184351503849,-0.15662872791290283,277.36492919921875,0.007540681399405003
4892422.794,1504,1480,634013109,218,103149700,0.040040697902441025,-0.15393409132957458,277.4100036621094,0.008010216057300568
4892522.794,1504,1480,634013109,218,103149700,0.040893539786338806,-0.16230446100234985,277.4477233886719,0.008060618303716183
4892622.794,1504,1480,634013109,218,103149700,0.029968107119202614,-0.16192151606082916,277.45599365234375,0.008178027346730232
4892722.794,1504,1480,634013109,218.01,103149700,0.02514600194990635,-0.17016081511974335,277.497802734375,0.008178798481822014
4892822.794,1504,1480,634013109,218.01,103149700,0.029880527406930923,-0.16431502997875214,277.5430908203125,0.007785951253026724
4892922.794,1504,1480,634013108,218.01,103149700,0.0322297029197216,-0.15632563829421997,277.569091796875,0.007120129652321339
4893022.794,1504,1480,634013108,218.01,103149700,0.04106857255101204,-0.15511956810951233,277.5889892578125,0.006232531275600195
4893122.794,1504,1480,634013108,218.02,103149700,0.036729831248521805,-0.17485499382019043,277.6507568359375,0.007253523916006088
4893222.794,1504,1480,634013108,218.02,103149700,0.029356596991419792,-0.16581624746322632,277.7322692871094,0.00962035171687603
4893322.794,1504,1480,634013108,218.03,103149699,0.03095817193388939,-0.16615842282772064,277.7883605957031,0.01053711399435997
4893422.794,1504,1480,634013108,218.03,103149699,0.029175028204917908,-0.1565549075603485,277.8116760253906,0.009276021271944046
4893522.794,1504,1480,634013108,218.04,103149700,0.01969141513109207,-0.1551586389541626,277.8374328613281,0.006812097504734993
4893622.794,1504,1480,634013108,218.04,103149700,0.024601923301815987,-0.1429113894701004,277.8573303222656,0.005349339917302132
4893722.794,1504,1480,634013108,218.04,103149700,0.031007176265120506,-0.1429508477449417,277.90155029296875,0.005642605945467949
4893822.794,1504,1480,634013108,218.04,103149700,0.03515404462814331,-0.15738195180892944,277.9411926269531,0.007805158384144306
4893922.794,1504,1480,634013108,218.05,103149700,0.03829454630613327,-0.17046613991260529,277.979248046875,0.00950275082141161
4894022.794,1504,1480,634013108,218.05,103149700,0.0429871641099453,-0.17599552869796753,278.0322265625,0.009785812348127365
4894122.794,1504,1480,634013108,218.06,103149700,0.03021998517215252,-0.16838042438030243,278.062744140625,0.008551456034183502
4894222.794,1504,1480,634013108,218.06,103149700,0.024407412856817245,-0.16016295552253723,278.09649658203125,0.007312619127333164
4894322.794,1504,1480,634013107,218.07,103149701,0.030987270176410675,-0.15556573867797852,278.1485900878906,0.006431227549910545
4894422.794,1504,1480,634013108,218.07,103149700,0.020509343594312668,-0.1564427614212036,278.2026672363281,0.006513330154120922
4894522.794,1504,1480,634013108,218.07,103149700,0.032114915549755096,-0.16033588349819183,278.2669677734375,0.007691705599427223
4894622.794,1504,1480,634013108,218.07,103149700,0.03286987543106079,-0.16109515726566315,278.3066711425781,0.00918955635279417
4894722.794,1504,1480,634013107,218.08,103149701,0.04275066405534744,-0.1607109010219574,278.34149169921875,0.010161139070987701
4894822.794,1504,1480,634013107,218.08,103149701,0.0388559028506279,-0.16205079853534698,278.37493896484375,0.008553503081202507
4894922.794,1504,1480,634013107,218.09,103149701,0.033011727035045624,-0.16048669815063477,278.3936462402344,0.006729412823915482
4895022.794,1504,1480,634013107,218.09,103149701,0.031507715582847595,-0.15248875319957733,278.39788818359375,0.005674559157341719
4895122.794,1504,1480,634013107,218.1,103149702,0.019785895943641663,-0.15063439309597015,278.4532470703125,0.006189127452671528
4895222.794,1504,1480,634013107,218.1,103149702,0.026249833405017853,-0.1585635095834732,278.5396728515625,0.00775512820109725
4895322.794,1504,1480,634013107,218.12,103149703,0.03530389070510864,-0.15664145350456238,278.5993347167969,0.009076405316591263
4895422.794,1504,1480,634013107,218.12,103149703,0.04329502955079079,-0.16724249720573425,278.6723937988281,0.00930894073098898
4895522.794,1504,1480,634013107,218.14,103149704,0.03364335745573044,-0.16718938946723938,278.7413635253906,0.009394137188792229
4895622.794,1504,1480,634013107,218.14,103149704,0.02981133945286274,-0.1675877720117569,278.7948913574219,0.008809718303382397
4895722.794,1504,1480,634013107,218.15,103149705,0.027672164142131805,-0.16275081038475037,278.8224182128906,0.006972334813326597
4895822.794,1504,1480,634013107,218.16,103149705,0.024692146107554436,-0.15113580226898193,278.8660888671875,0.005721575114876032
4895922.794,1504,1480,634013107,218.16,103149705,0.026379145681858063,-0.15634368360042572,278.89508056640625,0.005925088655203581
4896022.794,1504,1480,634013107,218.16,103149705,0.0333096943795681,-0.1608087718486786,278.9298095703125,0.007459400221705437
4896122.794,1504,1480,634013107,218.16,103149705,0.03618503734469414,-0.15706931054592133,278.99267578125,0.010115266777575016
4896222.794,1504,1480,634013107,218.16,103149705,0.03449450060725212,-0.16160565614700317,279.04168701171875,0.010479356162250042
4896322.794,1504,1480,634013107,218.18,103149705,0.04082891717553139,-0.15883967280387878,279.0789489746094,0.008189551532268524
4896422.794,1504,1480,634013107,218.18,103149705,0.03401622548699379,-0.1596900224685669,279.09710693359375,0.0052988119423389435
4896522.794,1504,1480,634013106,218.18,103149705,0.026383008807897568,-0.15886642038822174,279.1621398925781,0.0042435964569449425
4896622.794,1504,1480,634013106,218.18,103149705,0.024684857577085495,-0.15259812772274017,279.18878173828125,0.006258777342736721
4896722.794,1504,1480,634013106,218.18,103149704,0.02973209135234356,-0.15995292365550995,279.2351379394531,0.009798571467399597
4896822.794,1504,1480,634013106,218.18,103149704,0.03150708228349686,-0.16458189487457275,279.2698974609375,0.011355886235833168
4896922.794,1504,1480,634013106,218.18,103149704,0.037065595388412476,-0.16964079439640045,279.3002624511719,0.009561280719935894
4897022.794,1504,1480,634013106,218.18,103149704,0.03484711796045303,-0.1629219651222229,279.33447265625,0.007467836141586304
4897122.794,1504,1480,634013106,218.2,103149705,0.03067852556705475,-0.1561780869960785,279.4036560058594,0.005836362950503826
4897222.794,1504,1480,634013106,218.2,103149705,0.02691708132624626,-0.1551515907049179,279.4501953125,0.005274241324514151
4897322.794,1504,1480,634013106,218.2,103149704,0.0254621971398592,-0.1469542384147644,279.51904296875,0.006298413500189781
4897422.794,1504,1480,634013106,218.2,103149704,0.03396305441856384,-0.14679597318172455,279.6150207519531,0.00827048160135746
4897522.794,1504,1480,634013105,218.2,103149704,0.0324711799621582,-0.162833571434021,279.6773986816406,0.010193251073360443
4897622.794,1504,1480,634013105,218.2,103149704,0.03805443271994591,-0.16910389065742493,279.7235107421875,0.009923947975039482
4897722.794,1504,1480,634013105,218.2,103149704,0.03478390723466873,-0.16740500926971436,279.7551574707031,0.00792909786105156
4897822.794,1504,1480,634013104,218.21,103149704,0.036450814455747604,-0.16664981842041016,279.7550964355469,0.00547771155834198
4897922.794,1504,1480,634013104,218.21,103149704,0.026111949235200882,-0.16065140068531036,279.7774658203125,0.005063769407570362
4898022.794,1504,1480,634013104,218.21,103149704,0.029158953577280045,-0.15795713663101196,279.81121826171875,0.007359483744949102
4898122.794,1504,1480,634013104,218.21,103149704,0.03422430157661438,-0.1583254039287567,279.87628173828125,0.010575812309980392
4898222.794,1504,1480,634013104,218.21,103149704,0.034334395080804825,-0.15128761529922485,279.9410705566406,0.010868078097701073
4898322.794,1504,1480,634013104,218.22,103149704,0.03415912017226219,-0.15388891100883484,279.9848327636719,0.008559633046388626
