timestamp(ms),RCIN.C1,RCIN.C3,GPS.Lat,GPS.Alt,GPS.Lng,IMU.AccX,IMU.AccY,DCM.Yaw,IMU.GyrZ
2188546.486,0,0,634016330,220.31,103150026,0.07290802896022797,-0.15823650360107422,162.23886108398438,0.0015041138976812363
2188646.486,0,0,634016330,220.31,103150026,0.07237672805786133,-0.16154471039772034,162.26820373535156,0.001855117385275662
2188746.486,0,0,634016330,220.3,103150025,0.07590131461620331,-0.16316376626491547,162.29908752441406,0.0018537923460826278
2188846.486,0,0,634016330,220.3,103150025,0.07794518768787384,-0.16518311202526093,162.31784057617188,0.0015847288304939866
2188946.486,0,0,634016330,220.31,103150024,0.06327364593744278,-0.16358378529548645,162.32034301757812,0.0019648177549242973
2189046.486,0,0,634016330,220.31,103150024,0.06547114253044128,-0.16762664914131165,162.3297119140625,0.0022828038781881332
2189146.486,0,0,634016331,220.32,103150024,0.06872554868459702,-0.1616145670413971,162.31944274902344,0.00224481662735343
2189246.486,0,0,634016331,220.32,103150024,0.0697825700044632,-0.16023440659046173,162.3646240234375,0.002663632854819298
2189346.486,0,0,634016331,220.32,103150023,0.07074740529060364,-0.16257931292057037,162.41622924804688,0.003058986971154809
2189446.486,0,0,634016331,220.32,103150023,0.07158376276493073,-0.16210433840751648,162.41549682617188,0.002805795054882765
2189546.486,0,0,634016331,220.31,103150021,0.0707099437713623,-0.1672452688217163,162.39389038085938,0.002734061796218157
2189646.486,0,0,634016331,220.31,103150021,0.06976035982370377,-0.16806389391422272,162.40916442871094,0.0032245873007923365
2189746.486,0,0,634016331,220.31,103150020,0.06738483905792236,-0.1628759503364563,162.39382934570312,0.003394684288650751
2189846.486,0,0,634016331,220.31,103150020,0.057894542813301086,-0.16131459176540375,162.4433135986328,0.0038528654258698225
2189946.486,0,0,634016331,220.31,103150020,0.0704534724354744,-0.16308337450027466,162.4324493408203,0.004312703851610422
2190046.486,0,0,634016331,220.31,103150020,0.07374599575996399,-0.1658189594745636,162.44825744628906,0.004566255025565624
2190146.486,0,0,634016332,220.32,103150020,0.08060198277235031,-0.15809102356433868,162.44699096679688,0.0044143423438072205
2190246.486,0,0,634016332,220.32,103150020,0.07480813562870026,-0.163251593708992,162.47476196289062,0.003930052742362022
2190346.486,0,0,634016332,220.32,103150019,0.07332802563905716,-0.16101470589637756,162.53158569335938,0.004292599391192198
2190446.486,0,0,634016332,220.32,103150019,0.07212068140506744,-0.16263997554779053,162.5516357421875,0.005039544776082039
2190546.486,0,0,634016332,220.3,103150017,0.06827239692211151,-0.1677788645029068,162.5803985595703,0.0050949170254170895
2190646.486,0,0,634016332,220.3,103150017,0.0697840005159378,-0.15991337597370148,162.66285705566406,0.005186725873500109
2190746.486,0,0,634016332,220.31,103150015,0.06940529495477676,-0.16569992899894714,162.70245361328125,0.005497495643794537
2190846.486,0,0,634016332,220.31,103150015,0.07295326143503189,-0.16304069757461548,162.7561798095703,0.00563454907387495
2190946.486,0,0,634016333,220.3,103150015,0.06941957026720047,-0.16351653635501862,162.76544189453125,0.00556547986343503
2191046.486,0,0,634016333,220.3,103150015,0.07488608360290527,-0.16826295852661133,162.8123779296875,0.005675068590790033
2191146.486,0,0,634016332,220.3,103150013,0.07575615495443344,-0.16363525390625,162.84793090820312,0.005574049893766642
2191246.486,0,0,634016332,220.3,103150013,0.06705930829048157,-0.16301637887954712,162.8773956298828,0.005604922771453857
2191346.486,0,0,634016332,220.3,103150012,0.07133019715547562,-0.16066931188106537,162.93106079101562,0.006118587218225002
2191446.486,0,0,634016332,220.3,103150012,0.07296478003263474,-0.16758577525615692,162.98719787597656,0.006588137708604336
2191546.486,0,0,634016331,220.29,103150010,0.06960725784301758,-0.16819904744625092,163.00901794433594,0.006485117599368095
2191646.486,0,0,634016331,220.29,103150010,0.08208753168582916,-0.16539078950881958,163.04627990722656,0.006192801520228386
2191746.486,0,0,634016331,220.3,103150008,0.07554543763399124,-0.16527043282985687,163.06103515625,0.006264700088649988
2191846.486,0,0,634016331,220.3,103150008,0.07116082310676575,-0.1647840440273285,163.12576293945312,0.006121613550931215
2191946.486,0,0,634016330,220.29,103150007,0.06541366130113602,-0.16197150945663452,163.20169067382812,0.006297582294791937
2192046.486,0,0,634016330,220.29,103150007,0.06633413583040237,-0.16829124093055725,163.22528076171875,0.006230039522051811
2192146.486,0,0,634016330,220.28,103150005,0.07063354551792145,-0.16605624556541443,163.25852966308594,0.006216088775545359
2192246.486,0,0,634016330,220.28,103150005,0.07240912318229675,-0.16495390236377716,163.25473022460938,0.006385321728885174
2192346.486,0,0,634016330,220.29,103150004,0.07720083743333817,-0.16750666499137878,163.2830352783203,0.0062033263966441154
2192446.486,0,0,634016330,220.29,103150004,0.07102615386247635,-0.16210418939590454,163.3063507080078,0.005928823724389076
2192546.486,0,0,634016330,220.29,103150003,0.06917620450258255,-0.16603392362594604,163.34866333007812,0.005791458301246166
2192646.486,0,0,634016330,220.29,103150003,0.07048744708299637,-0.16672110557556152,163.37680053710938,0.0060540116392076015
2192746.486,0,0,634016330,220.29,103150000,0.06832312047481537,-0.16812001168727875,163.4218292236328,0.006379036232829094
2192846.486,0,0,634016330,220.29,103150000,0.06869878619909286,-0.160609632730484,163.47335815429688,0.0062493691220879555
2192946.486,0,0,634016330,220.3,103150000,0.07518180459737778,-0.1682283878326416,163.53025817871094,0.006119430530816317
2193046.486,0,0,634016330,220.3,103150000,0.07492821663618088,-0.1648414134979248,163.57916259765625,0.006116602104157209
2193146.486,0,0,634016331,220.29,103149998,0.07628483325242996,-0.16809099912643433,163.5966033935547,0.005741121247410774
2193246.486,0,0,634016331,220.29,103149998,0.07012683153152466,-0.165785551071167,163.62362670898438,0.0056431228294968605
2193346.486,0,0,634016331,220.29,103149997,0.07042476534843445,-0.1654140204191208,163.658447265625,0.005681936163455248
2193446.486,0,0,634016331,220.29,103149997,0.06858620047569275,-0.16127909719944,163.71836853027344,0.005579282063990831
2193546.486,0,0,634016331,220.29,103149996,0.07092633843421936,-0.16149067878723145,163.72874450683594,0.005880397278815508
2193646.486,0,0,634016331,220.29,103149996,0.0738343745470047,-0.1673259288072586,163.81394958496094,0.005563032813370228
2193746.486,0,0,634016331,220.29,103149995,0.07431571930646896,-0.16579855978488922,163.8035888671875,0.005055323708802462
2193846.486,0,0,634016331,220.29,103149995,0.07081703096628189,-0.16805027425289154,163.84237670898438,0.004878829699009657
2193946.486,0,0,634016332,220.29,103149994,0.062218762934207916,-0.16806504130363464,163.8851776123047,0.004250808618962765
2194046.486,0,0,634016332,220.29,103149994,0.06531193852424622,-0.17271173000335693,163.92349243164062,0.004351971670985222
2194146.486,0,0,634016332,220.3,103149993,0.0748147964477539,-0.15898925065994263,163.92691040039062,0.0046901097521185875
2194246.486,0,0,634016332,220.3,103149993,0.07384662330150604,-0.16334795951843262,163.96466064453125,0.004567097872495651
2194346.486,0,0,634016332,220.29,103149992,0.07219696044921875,-0.1658812314271927,163.99111938476562,0.0040854825638234615
2194446.486,0,0,634016332,220.29,103149992,0.07898826152086258,-0.16615760326385498,164.01593017578125,0.003470529103651643
2194546.486,0,0,634016332,220.28,103149991,0.07187853008508682,-0.16472908854484558,163.99267578125,0.00310539361089468
2194646.486,0,0,634016332,220.28,103149991,0.07216094434261322,-0.1672290563583374,164.01971435546875,0.003184081520885229
2194746.486,0,0,634016333,220.27,103149991,0.06617674976587296,-0.16710436344146729,164.07452392578125,0.0030319655779749155
2194846.486,0,0,634016333,220.27,103149991,0.07965554296970367,-0.16299079358577728,164.07086181640625,0.0028377589769661427
2194946.486,0,0,634016333,220.28,103149990,0.07267840951681137,-0.16564227640628815,164.11041259765625,0.0021288031712174416
2195046.486,0,0,634016333,220.28,103149990,0.07183351367712021,-0.16547270119190216,164.10650634765625,0.0019984059035778046
2195146.486,0,0,634016334,220.28,103149989,0.0721106082201004,-0.16629713773727417,164.12608337402344,0.001812228001654148
2195246.486,0,0,634016334,220.28,103149989,0.0777256041765213,-0.16624891757965088,164.14266967773438,0.0015088649233803153
2195346.486,0,0,634016334,220.28,103149988,0.06816578656435013,-0.16426591575145721,164.16859436035156,0.00097610242664814
2195446.486,0,0,634016334,220.28,103149988,0.07545112073421478,-0.16472184658050537,164.16049194335938,0.0005854894407093525
2195546.486,0,0,634016334,220.27,103149987,0.06004621461033821,-0.16285404562950134,164.15512084960938,0.0005495374789461493
2195646.486,0,0,634016334,220.27,103149987,0.06744445860385895,-0.16248726844787598,164.1707763671875,0.0005362877855077386
2195746.486,0,0,634016334,220.28,103149987,0.07108472287654877,-0.16878241300582886,164.1735076904297,-0.00001543366306577809
2195846.486,0,0,634016334,220.28,103149987,0.0760943815112114,-0.16073043644428253,164.1607208251953,-0.0008407970308326185
2195946.486,0,0,634016335,220.27,103149986,0.06947565078735352,-0.16533829271793365,164.18995666503906,-0.0013444422511383891
2196046.486,0,0,634016335,220.27,103149986,0.07674582302570343,-0.1661207377910614,164.1678009033203,-0.0007815338321961462
2196146.486,0,0,634016335,220.27,103149986,0.06982971727848053,-0.16415415704250336,164.17416381835938,-0.0007634631474502385
2196246.486,0,0,634016335,220.27,103149986,0.07248331606388092,-0.1726672500371933,164.14877319335938,-0.0008637699065729976
2196346.486,0,0,634016335,220.28,103149985,0.07033183425664902,-0.1639799177646637,164.1231231689453,-0.0016400417080149055
2196446.486,0,0,634016335,220.28,103149985,0.06460791081190109,-0.16278661787509918,164.16493225097656,-0.0022365853656083345
2196546.486,0,0,634016336,220.31,103149984,0.06774580478668213,-0.163234680891037,164.14683532714844,-0.002180858515202999
2196646.486,0,0,634016336,220.31,103149984,0.07210105657577515,-0.167035773396492,164.16384887695312,-0.0019497997127473354
2196746.486,0,0,634016337,220.37,103149982,0.07268840819597244,-0.1605347841978073,164.1818389892578,-0.0024910038337111473
2196846.486,0,0,634016337,220.37,103149982,0.06940048187971115,-0.16049396991729736,164.1906280517578,-0.0029079080559313297
2196946.486,0,0,634016337,220.37,103149982,0.06960928440093994,-0.16798928380012512,164.1795654296875,-0.0027793669141829014
2197046.486,0,0,634016337,220.37,103149982,0.07069861888885498,-0.16255083680152893,164.14793395996094,-0.0030362368561327457
2197146.486,0,0,634016337,220.37,103149981,0.06972070783376694,-0.16237884759902954,164.13912963867188,-0.0031938464380800724
2197246.486,0,0,634016337,220.37,103149981,0.06966850161552429,-0.16873563826084137,164.15408325195312,-0.0039006946608424187
2197346.486,0,0,634016337,220.37,103149981,0.070467010140419,-0.16277316212654114,164.1490936279297,-0.004299176391214132
2197446.486,0,0,634016337,220.37,103149981,0.06786748766899109,-0.1726527065038681,164.14718627929688,-0.0043584262020885944
2197546.486,0,0,634016337,220.36,103149980,0.07256484776735306,-0.1655106395483017,164.15284729003906,-0.003886782331392169
2197646.486,0,0,634016337,220.36,103149980,0.07447504997253418,-0.1634640395641327,164.10586547851562,-0.004071187227964401
2197746.486,0,0,634016337,220.37,103149980,0.07616676390171051,-0.16094434261322021,164.06594848632812,-0.004750596825033426
2197846.486,0,0,634016337,220.37,103149980,0.07419164478778839,-0.16322995722293854,164.0192108154297,-0.004976090043783188
2197946.486,0,0,634016336,220.36,103149979,0.07038004696369171,-0.16904368996620178,164.00274658203125,-0.005298767704516649
2198046.486,0,0,634016336,220.36,103149979,0.062124550342559814,-0.1633329689502716,163.99078369140625,-0.0054189544171094894
2198146.486,0,0,634016336,220.37,103149979,0.06521612405776978,-0.16112172603607178,163.9617919921875,-0.005403326358646154
2198246.486,0,0,634016336,220.37,103149979,0.06512898951768875,-0.16646583378314972,163.9193878173828,-0.005727340932935476
2198346.486,0,0,634016337,220.38,103149979,0.06788913905620575,-0.16607724130153656,163.86778259277344,-0.005776649806648493
2198446.486,0,0,634016337,220.38,103149979,0.06849038600921631,-0.1622847318649292,163.8118438720703,-0.006170690059661865
2198546.486,0,0,634016337,220.37,103149978,0.07437562942504883,-0.1587280035018921,163.80609130859375,-0.006294620223343372
2198646.486,0,0,634016337,220.37,103149978,0.07157672941684723,-0.16639074683189392,163.75059509277344,-0.007062231656163931
2198746.486,0,0,634016337,220.37,103149978,0.07227948307991028,-0.16583867371082306,163.73236083984375,-0.006989540532231331
2198846.486,0,0,634016337,220.37,103149978,0.06770728528499603,-0.15868021547794342,163.69561767578125,-0.007517093792557716
2198946.486,0,0,634016337,220.36,103149978,0.07351721823215485,-0.16445809602737427,163.65036010742188,-0.007081214804202318
2199046.486,0,0,634016337,220.36,103149978,0.06737940013408661,-0.16744187474250793,163.62644958496094,-0.0074586509726941586
2199146.486,0,0,634016338,220.36,103149977,0.07352299243211746,-0.16723035275936127,163.58987426757812,-0.0077697583474218845
2199246.486,0,0,634016338,220.36,103149977,0.06854557245969772,-0.16666056215763092,163.56820678710938,-0.008491059765219688
2199346.486,0,0,634016338,220.36,103149977,0.07130766659975052,-0.16080468893051147,163.510498046875,-0.008685063570737839
2199446.486,0,0,634016338,220.36,103149977,0.06508436799049377,-0.1652148962020874,163.44357299804688,-0.008359447121620178
2199546.486,0,0,634016338,220.36,103149976,0.07248346507549286,-0.16143932938575745,163.37770080566406,-0.008443932980298996
2199646.486,0,0,634016338,220.36,103149976,0.06915871053934097,-0.16492986679077148,163.3304901123047,-0.009037991985678673
2199746.486,0,0,634016338,220.37,103149975,0.06410959362983704,-0.1635648012161255,163.30386352539062,-0.009178154170513153
2199846.486,0,0,634016338,220.37,103149975,0.07072403281927109,-0.1687585860490799,163.2813262939453,-0.00943068414926529
2199946.486,0,0,634016339,220.36,103149976,0.07396034896373749,-0.16901949048042297,163.23333740234375,-0.00981175433844328
2200046.486,0,0,634016339,220.36,103149976,0.07307534664869308,-0.1685999035835266,163.1902618408203,-0.010100948624312878
2200146.486,0,0,634016338,220.36,103149976,0.0682893842458725,-0.16387493908405304,163.1656494140625,-0.010029428638517857
2200246.486,0,0,634016338,220.36,103149976,0.06882855296134949,-0.16160276532173157,163.17050170898438,-0.010060176253318787
2200346.486,0,0,634016339,220.36,103149976,0.06780120730400085,-0.15672528743743896,163.1468505859375,-0.010203027166426182
2200446.486,0,0,634016339,220.36,103149976,0.06954967975616455,-0.1671953648328781,163.07830810546875,-0.010354369878768921
2200546.486,0,0,634016339,220.35,103149976,0.0738070160150528,-0.1619083285331726,163.03062438964844,-0.011087396182119846
2200646.486,0,0,634016339,220.35,103149976,0.07221684604883194,-0.16952407360076904,163.00535583496094,-0.011355593800544739
2200746.486,0,0,634016339,220.34,103149977,0.06199171766638756,-0.16546855866909027,162.94940185546875,-0.011550117284059525
2200846.486,0,0,634016339,220.34,103149977,0.0747460126876831,-0.16516821086406708,162.87033081054688,-0.011805065907537937
2200946.486,0,0,634016339,220.35,103149976,0.07013795524835587,-0.16949321329593658,162.8097381591797,-0.011879456229507923
2201046.486,0,0,634016339,220.35,103149976,0.06879580020904541,-0.16480782628059387,162.75404357910156,-0.012302152812480927
2201146.486,0,0,634016340,220.34,103149977,0.0701049342751503,-0.1654021292924881,162.683837890625,-0.012482958845794201
2201246.486,0,0,634016340,220.34,103149977,0.07082697749137878,-0.16349296271800995,162.6483612060547,-0.012610810808837414
2201346.486,0,0,634016340,220.35,103149977,0.07096980512142181,-0.1587926745414734,162.5799560546875,-0.012979076243937016
2201446.486,0,0,634016340,220.35,103149977,0.07879917323589325,-0.16023898124694824,162.49624633789062,-0.013388730585575104
2201546.486,0,0,634016340,220.34,103149976,0.07052436470985413,-0.16593220829963684,162.41397094726562,-0.013736449182033539
2201646.486,0,0,634016340,220.34,103149976,0.07379023730754852,-0.16575650870800018,162.31396484375,-0.014258028008043766
2201746.486,0,0,634016340,220.33,103149977,0.06539218127727509,-0.16949208080768585,162.2367706298828,-0.014125099405646324
2201846.486,0,0,634016340,220.33,103149977,0.0722324475646019,-0.16347190737724304,162.13674926757812,-0.014312594197690487
2201946.486,0,0,634016340,220.31,103149978,0.0730092003941536,-0.1561240404844284,162.05633544921875,-0.014650270342826843
2202046.486,0,0,634016340,220.31,103149978,0.07053268700838089,-0.15784011781215668,161.94760131835938,-0.015247303061187267
2202146.486,0,0,634016340,220.32,103149978,0.06407314538955688,-0.166159987449646,161.86383056640625,-0.015733761712908745
2202246.486,0,0,634016340,220.32,103149978,0.06940040737390518,-0.16524340212345123,161.79873657226562,-0.015590397641062737
2202346.486,0,0,634016340,220.31,103149978,0.07139744609594345,-0.16230949759483337,161.68057250976562,-0.015754181891679764
2202446.486,0,0,634016340,220.31,103149978,0.06960967928171158,-0.1654009222984314,161.6053009033203,-0.016244128346443176
2202546.486,0,0,634016340,220.31,103149978,0.06584148108959198,-0.16554343700408936,161.5037841796875,-0.016301004216074944
2202646.486,0,0,634016340,220.31,103149978,0.06966307014226913,-0.15778036415576935,161.4229278564453,-0.01687018759548664
2202746.486,0,0,634016340,220.3,103149979,0.06908060610294342,-0.1625654697418213,161.35028076171875,-0.016954120248556137
2202846.486,0,0,634016340,220.3,103149979,0.06967028975486755,-0.1600600630044937,161.2646026611328,-0.017301203683018684
2202946.486,0,0,634016340,220.3,103149979,0.07297659665346146,-0.17347119748592377,161.1520233154297,-0.01758498325943947
2203046.486,0,0,634016340,220.3,103149979,0.07532414048910141,-0.17032846808433533,161.05409240722656,-0.01800157129764557
2203146.486,0,0,634016340,220.31,103149979,0.06737442314624786,-0.16259747743606567,160.94149780273438,-0.017989300191402435
2203246.486,0,0,634016340,220.31,103149979,0.06690213829278946,-0.1646880954504013,160.85809326171875,-0.018168609589338303
2203346.486,0,0,634016340,220.29,103149980,0.07265659421682358,-0.16573847830295563,160.76316833496094,-0.018403762951493263
2203446.486,0,0,634016340,220.29,103149980,0.07348670810461044,-0.1659395396709442,160.6776123046875,-0.018788162618875504
2203546.486,0,0,634016340,220.29,103149981,0.07775244116783142,-0.16317415237426758,160.5578155517578,-0.0188917126506567
2203646.486,0,0,634016340,220.29,103149981,0.07567820698022842,-0.16268187761306763,160.4788055419922,-0.018813740462064743
2203746.486,0,0,634016339,220.28,103149980,0.06505341082811356,-0.15891897678375244,160.38583374023438,-0.01943734474480152
2203846.486,0,0,634016339,220.28,103149980,0.06685750186443329,-0.16091544926166534,160.30824279785156,-0.019662488251924515
2203946.486,0,0,634016339,220.28,103149981,0.06983095407485962,-0.16439363360404968,160.2396240234375,-0.019873470067977905
2204046.486,0,0,634016339,220.28,103149981,0.07409445941448212,-0.1645296812057495,160.1121368408203,-0.019783254712820053
2204146.486,0,0,634016339,220.28,103149981,0.07486206293106079,-0.165340393781662,160.02525329589844,-0.02011420950293541
2204246.486,0,0,634016339,220.28,103149981,0.07734773308038712,-0.16818201541900635,159.94239807128906,-0.02025694027543068
2204346.486,0,0,634016339,220.28,103149980,0.0702894926071167,-0.16859902441501617,159.80421447753906,-0.02063688263297081
2204446.486,0,0,634016339,220.28,103149980,0.06348242610692978,-0.1588275134563446,159.71482849121094,-0.02080630511045456
2204546.486,0,0,634016339,220.28,103149981,0.06233099848031998,-0.1598999798297882,159.60879516601562,-0.020906206220388412
2204646.486,0,0,634016339,220.28,103149981,0.06875468790531158,-0.16924747824668884,159.53121948242188,-0.02111697383224964
2204746.486,0,0,634016338,220.26,103149981,0.07053328305482864,-0.1675720363855362,159.40744018554688,-0.021341601386666298
2204846.486,0,0,634016338,220.26,103149981,0.07581260055303574,-0.16227056086063385,159.2673797607422,-0.02142157591879368
2204946.486,0,0,634016339,220.26,103149980,0.07262291014194489,-0.1684028059244156,159.19483947753906,-0.021555082872509956
2205046.486,0,0,634016339,220.26,103149980,0.0692080706357956,-0.16752037405967712,159.0919952392578,-0.022062312811613083
2205146.486,0,0,634016338,220.26,103149980,0.06568630039691925,-0.16094017028808594,158.95855712890625,-0.02208269014954567
2205246.486,0,0,634016338,220.26,103149980,0.06555283069610596,-0.1596270203590393,158.8272247314453,-0.022002380341291428
2205346.486,0,0,634016338,220.24,103149981,0.07085901498794556,-0.1601744145154953,158.73292541503906,-0.021946582943201065
2205446.486,0,0,634016338,220.24,103149981,0.06952591240406036,-0.16481512784957886,158.57298278808594,-0.022240202873945236
2205546.486,0,0,634016337,220.24,103149980,0.06594552844762802,-0.16673271358013153,158.47698974609375,-0.022834811359643936
2205646.486,0,0,634016337,220.24,103149980,0.0692584216594696,-0.17202416062355042,158.3602752685547,-0.022706683725118637
2205746.486,0,0,634016338,220.24,103149981,0.06448168307542801,-0.16414377093315125,158.23255920410156,-0.022864725440740585
2205846.486,0,0,634016338,220.24,103149981,0.06739713251590729,-0.16131101548671722,158.11563110351562,-0.02270912006497383
2205946.486,0,0,634016338,220.24,103149981,0.06475262343883514,-0.1609441190958023,158.00071716308594,-0.022713903337717056
2206046.486,0,0,634016338,220.24,103149981,0.07597465813159943,-0.16305428743362427,157.86080932617188,-0.02261314168572426
2206146.486,0,0,634016337,220.23,103149981,0.07324586808681488,-0.17082495987415314,157.7370147705078,-0.02273775450885296
2206246.486,0,0,634016337,220.23,103149981,0.06434808671474457,-0.1587229073047638,157.59878540039062,-0.02312757819890976
2206346.486,0,0,634016337,220.23,103149981,0.06756086647510529,-0.16754519939422607,157.4524688720703,-0.023607507348060608
2206446.486,0,0,634016337,220.23,103149981,0.06930211186408997,-0.16448339819908142,157.31619262695312,-0.02338544651865959
2206546.486,0,0,634016337,220.22,103149981,0.06768638640642166,-0.16506454348564148,157.20236206054688,-0.023072127252817154
2206646.486,0,0,634016337,220.22,103149981,0.06822314113378525,-0.16337943077087402,157.0635223388672,-0.02381175011396408
2206746.486,0,0,634016337,220.22,103149981,0.062421075999736786,-0.15838879346847534,156.93026733398438,-0.0236031673848629
2206846.486,0,0,634016337,220.22,103149981,0.07474802434444427,-0.15790118277072906,156.806884765625,-0.02369193732738495
2206946.486,0,0,634016338,220.21,103149981,0.07141983509063721,-0.1651877462863922,156.66012573242188,-0.023833749815821648
2207046.486,0,0,634016338,220.21,103149981,0.06937746703624725,-0.16613124310970306,156.50389099121094,-0.02367362380027771
2207146.486,0,0,634016337,220.2,103149981,0.06839358806610107,-0.1676870882511139,156.3820037841797,-0.02371685579419136
2207246.486,0,0,634016337,220.2,103149981,0.07417050749063492,-0.1639658361673355,156.2643585205078,-0.023808587342500687
2207346.486,0,0,634016337,220.2,103149982,0.06273879110813141,-0.1714298129081726,156.1365203857422,-0.023535780608654022
2207446.486,0,0,634016337,220.2,103149982,0.07082980871200562,-0.16185176372528076,156.00814819335938,-0.02332276664674282
2207546.486,0,0,634016338,220.21,103149981,0.07104653120040894,-0.16645067930221558,155.86956787109375,-0.023220228031277657
2207646.486,0,0,634016338,220.21,103149981,0.07158163189888,-0.16176150739192963,155.7367706298828,-0.02343018352985382
2207746.486,0,0,634016338,220.18,103149982,0.06946589052677155,-0.1667780876159668,155.6043701171875,-0.02393173985183239
2207846.486,0,0,634016338,220.18,103149982,0.06245036423206329,-0.16223841905593872,155.46559143066406,-0.02396199107170105
2207946.486,0,0,634016338,220.19,103149981,0.06329326331615448,-0.16528882086277008,155.34107971191406,-0.02323201112449169
2208046.486,0,0,634016338,220.19,103149981,0.0665096640586853,-0.1655053049325943,155.24948120117188,-0.023240521550178528
2208146.486,0,0,634016338,220.16,103149982,0.07194720953702927,-0.16377149522304535,155.13235473632812,-0.02309030294418335
2208246.486,0,0,634016338,220.16,103149982,0.07278864830732346,-0.16350843012332916,154.99945068359375,-0.023391403257846832
2208346.486,0,0,634016338,220.17,103149982,0.06953778117895126,-0.16185148060321808,154.88787841796875,-0.02339567244052887
2208446.486,0,0,634016338,220.17,103149982,0.0640808492898941,-0.16047215461730957,154.7825927734375,-0.023179974406957626
2208546.486,0,0,634016338,220.15,103149982,0.07209543138742447,-0.16760194301605225,154.6746063232422,-0.02319113351404667
2208646.486,0,0,634016338,220.15,103149982,0.06969603896141052,-0.1675402820110321,154.5518798828125,-0.023159129545092583
2208746.486,0,0,634016339,220.15,103149983,0.06357910484075546,-0.16228894889354706,154.4497833251953,-0.022927608340978622
2208846.486,0,0,634016339,220.15,103149983,0.06900303810834885,-0.16146060824394226,154.3198699951172,-0.0233343243598938
2208946.486,0,0,634016339,220.12,103149983,0.06936042010784149,-0.15929891169071198,154.163330078125,-0.02284124866127968
2209046.486,0,0,634016339,220.12,103149983,0.07181277126073837,-0.1630283147096634,154.05653381347656,-0.023025857284665108
2209146.486,0,0,634016338,220.11,103149984,0.06914576888084412,-0.1589699238538742,153.95494079589844,-0.02267466112971306
2209246.486,0,0,634016338,220.11,103149984,0.07503598928451538,-0.16699181497097015,153.84283447265625,-0.022841278463602066
2209346.486,0,0,634016339,220.1,103149984,0.07157297432422638,-0.16763420403003693,153.68443298339844,-0.022640768438577652
2209446.486,0,0,634016339,220.1,103149984,0.0737229585647583,-0.1689971387386322,153.54409790039062,-0.022547371685504913
2209546.486,0,0,634016338,220.08,103149984,0.07366970181465149,-0.1650010645389557,153.45526123046875,-0.022655224427580833
2209646.486,0,0,634016338,220.08,103149984,0.07203076779842377,-0.1625135987997055,153.3234405517578,-0.022630371153354645
2209746.486,0,0,634016338,220.07,103149985,0.07150711119174957,-0.16553422808647156,153.17169189453125,-0.022426240146160126
2209846.486,0,0,634016338,220.07,103149985,0.06330732256174088,-0.15586380660533905,153.0225830078125,-0.022300060838460922
2209946.486,0,0,634016338,220.05,103149986,0.07376788556575775,-0.16819573938846588,152.89390563964844,-0.022000590339303017
2210046.486,0,0,634016338,220.05,103149986,0.07187102735042572,-0.16635781526565552,152.79698181152344,-0.021776089444756508
2210146.486,0,0,634016338,220.03,103149986,0.06879669427871704,-0.1686684936285019,152.62937927246094,-0.021972596645355225
2210246.486,0,0,634016338,220.03,103149986,0.07184551656246185,-0.16530069708824158,152.5186767578125,-0.021967392414808273
2210346.486,0,0,634016338,220.03,103149986,0.06193457916378975,-0.17096251249313354,152.39244079589844,-0.02204635553061962
2210446.486,0,0,634016338,220.03,103149986,0.06637302041053772,-0.16983751952648163,152.27191162109375,-0.02213462069630623
2210546.486,0,0,634016337,220,103149987,0.06459734588861465,-0.16972342133522034,152.18223571777344,-0.021575942635536194
2210646.486,0,0,634016337,220,103149987,0.06920580565929413,-0.16555020213127136,152.07225036621094,-0.021276533603668213
2210746.486,0,0,634016338,219.99,103149987,0.07195080816745758,-0.1631157398223877,151.9114532470703,-0.021459849551320076
2210846.486,0,0,634016338,219.99,103149987,0.07329973578453064,-0.16882112622261047,151.80531311035156,-0.021352078765630722
2210946.486,0,0,634016337,219.99,103149988,0.07412081956863403,-0.16378092765808105,151.7089385986328,-0.021338408812880516
2211046.486,0,0,634016337,219.99,103149988,0.06986959278583527,-0.16270527243614197,151.6184539794922,-0.021267253905534744
2211146.486,0,0,634016337,219.97,103149988,0.07077984511852264,-0.1596374809741974,151.4724884033203,-0.021515820175409317
2211246.486,0,0,634016337,219.97,103149988,0.06711144745349884,-0.16615751385688782,151.3710479736328,-0.021472424268722534
2211346.486,0,0,634016337,219.96,103149988,0.06877065449953079,-0.16338935494422913,151.270751953125,-0.0213400200009346
2211446.486,0,0,634016337,219.96,103149988,0.06423979997634888,-0.15843798220157623,151.15383911132812,-0.02155628800392151
2211546.486,0,0,634016337,219.95,103149989,0.0629737377166748,-0.1630033403635025,151.04977416992188,-0.021335219964385033
2211646.486,0,0,634016337,219.95,103149989,0.0700976625084877,-0.15744240581989288,150.93739318847656,-0.02108793705701828
2211746.486,0,0,634016337,219.94,103149989,0.07270407676696777,-0.15969568490982056,150.79498291015625,-0.021280255168676376
2211846.486,0,0,634016337,219.94,103149989,0.06829959154129028,-0.16784867644309998,150.66171264648438,-0.021136609837412834
2211946.486,0,0,634016337,219.94,103149990,0.06601142883300781,-0.1637004315853119,150.5518035888672,-0.02144448272883892
2212046.486,0,0,634016337,219.94,103149990,0.07406304776668549,-0.164437398314476,150.42628479003906,-0.020930269733071327
2212146.486,0,0,634016336,219.94,103149990,0.06606244295835495,-0.16674178838729858,150.31317138671875,-0.020782463252544403
2212246.486,0,0,634016336,219.94,103149990,0.07231710106134415,-0.1681884080171585,150.16921997070312,-0.020741935819387436
2212346.486,0,0,634016336,219.92,103149990,0.07435993105173111,-0.1605328917503357,150.09674072265625,-0.02087494172155857
2212446.486,0,0,634016336,219.92,103149990,0.0641329362988472,-0.15786661207675934,149.98843383789062,-0.020802462473511696
2212546.486,0,0,634016336,219.91,103149990,0.06945741921663284,-0.1576804518699646,149.84320068359375,-0.020787034183740616
2212646.486,0,0,634016336,219.91,103149990,0.06710484623908997,-0.16437847912311554,149.74761962890625,-0.020579533651471138
2212746.486,0,0,634016337,219.9,103149991,0.06890200823545456,-0.16732662916183472,149.60498046875,-0.021025683730840683
2212846.486,0,0,634016337,219.9,103149991,0.07044617086648941,-0.16787759959697723,149.4977264404297,-0.021031927317380905
2212946.486,0,0,634016337,219.9,103149990,0.06553632020950317,-0.16191178560256958,149.43978881835938,-0.020641621202230453
2213046.486,0,0,634016337,219.9,103149990,0.07260826230049133,-0.1610608994960785,149.3182830810547,-0.021015005186200142
2213146.486,0,0,634016336,219.89,103149991,0.07389148324728012,-0.16596291959285736,149.2263946533203,-0.020775362849235535
2213246.486,0,0,634016336,219.89,103149991,0.07013773173093796,-0.16716735064983368,149.07150268554688,-0.020744018256664276
2213346.486,0,0,634016336,219.88,103149991,0.07273106276988983,-0.163574680685997,149.0128936767578,-0.020798210054636
2213446.486,0,0,634016336,219.88,103149991,0.06633000820875168,-0.17012257874011993,148.92669677734375,-0.020478056743741035
2213546.486,0,0,634016336,219.87,103149991,0.06976605951786041,-0.15966157615184784,148.7753448486328,-0.020173631608486176
2213646.486,0,0,634016336,219.87,103149991,0.07484094798564911,-0.163519024848938,148.64385986328125,-0.020244058221578598
2213746.486,0,0,634016336,219.87,103149992,0.06697198003530502,-0.16637669503688812,148.52532958984375,-0.020541630685329437
2213846.486,0,0,634016336,219.87,103149992,0.06797964870929718,-0.16673654317855835,148.4302215576172,-0.020460668951272964
2213946.486,0,0,634016335,219.85,103149992,0.06843390315771103,-0.16699910163879395,148.33901977539062,-0.020243320614099503
2214046.486,0,0,634016335,219.85,103149992,0.0684317797422409,-0.16616468131542206,148.2053985595703,-0.02032240480184555
2214146.486,0,0,634016335,219.87,103149991,0.06317845731973648,-0.16164757311344147,148.10374450683594,-0.020008552819490433
2214246.486,0,0,634016335,219.87,103149991,0.07379227131605148,-0.16534113883972168,147.9451446533203,-0.019909188151359558
2214346.486,0,0,634016335,219.86,103149992,0.07627195119857788,-0.16623468697071075,147.83883666992188,-0.020141206681728363
2214446.486,0,0,634016335,219.86,103149992,0.07239577174186707,-0.16606323421001434,147.70628356933594,-0.020057452842593193
2214546.486,0,0,634016335,219.87,103149991,0.06911294162273407,-0.16859011352062225,147.54920959472656,-0.020363882184028625
2214646.486,0,0,634016335,219.87,103149991,0.06836673617362976,-0.16318923234939575,147.43374633789062,-0.019995933398604393
2214746.486,0,0,634016335,219.87,103149991,0.06218539550900459,-0.16553908586502075,147.28305053710938,-0.019614053890109062
2214846.486,0,0,634016335,219.87,103149991,0.06603279709815979,-0.16533076763153076,147.18270874023438,-0.01968069188296795
2214946.486,0,0,634016334,219.87,103149991,0.06749562174081802,-0.15720105171203613,147.0637969970703,-0.01960313320159912
2215046.486,0,0,634016334,219.87,103149991,0.06869462132453918,-0.16495996713638306,146.95620727539062,-0.01942025125026703
2215146.486,0,0,634016334,219.87,103149991,0.07018233835697174,-0.16403821110725403,146.89710998535156,-0.019665252417325974
2215246.486,0,0,634016334,219.87,103149991,0.07394567131996155,-0.15945366024971008,146.7661895751953,-0.020024150609970093
2215346.486,0,0,634016334,219.87,103149991,0.06945331394672394,-0.1619139164686203,146.64312744140625,-0.019745295867323875
2215446.486,0,0,634016334,219.87,103149991,0.07085585594177246,-0.16494262218475342,146.54380798339844,-0.01926412433385849
2215546.486,0,0,634016333,219.87,103149990,0.06676648557186127,-0.15997479856014252,146.41781616210938,-0.019022589549422264
2215646.486,0,0,634016333,219.87,103149990,0.06753362715244293,-0.15782175958156586,146.30226135253906,-0.01897731050848961
2215746.486,0,0,634016334,219.87,103149990,0.06801135838031769,-0.16210636496543884,146.17202758789062,-0.019107887521386147
2215846.486,0,0,634016334,219.87,103149990,0.07097046822309494,-0.16148310899734497,146.06919860839844,-0.019155362620949745
2215946.486,0,0,634016333,219.87,103149989,0.07402762770652771,-0.16095009446144104,145.977783203125,-0.019460923969745636
2216046.486,0,0,634016333,219.87,103149989,0.06619174778461456,-0.1659923940896988,145.90420532226562,-0.019320325925946236
2216146.486,0,0,634016333,219.87,103149990,0.06514520943164825,-0.16522939503192902,145.83026123046875,-0.0187205970287323
2216246.486,0,0,634016333,219.87,103149990,0.06621492654085159,-0.16900983452796936,145.72549438476562,-0.017976650968194008
2216346.486,0,0,634016333,219.87,103149990,0.07355967164039612,-0.16249586641788483,145.6352081298828,-0.018241100013256073
2216446.486,0,0,634016333,219.87,103149990,0.06947550177574158,-0.16498757898807526,145.5146026611328,-0.018375111743807793
2216546.486,0,0,634016333,219.87,103149989,0.07380971312522888,-0.16024243831634521,145.43753051757812,-0.018187500536441803
2216646.486,0,0,634016333,219.87,103149989,0.07035337388515472,-0.16504809260368347,145.3258514404297,-0.018270717933773994
2216746.486,0,0,634016332,219.87,103149989,0.06931158900260925,-0.1585569679737091,145.19036865234375,-0.0178875382989645
2216846.486,0,0,634016332,219.87,103149989,0.07377143204212189,-0.16809622943401337,145.096923828125,-0.017875514924526215
2216946.486,0,0,634016333,219.87,103149989,0.06868129968643188,-0.16359928250312805,144.99998474121094,-0.01731104403734207
2217046.486,0,0,634016333,219.87,103149989,0.06619026511907578,-0.16656236350536346,144.9272918701172,-0.017084989696741104
2217146.486,0,0,634016332,219.87,103149989,0.06658616662025452,-0.1656336486339569,144.856689453125,-0.016770314425230026
2217246.486,0,0,634016332,219.87,103149989,0.06877157092094421,-0.15992297232151031,144.74815368652344,-0.01716890186071396
2217346.486,0,0,634016332,219.86,103149989,0.06352542340755463,-0.16540858149528503,144.67904663085938,-0.01742098666727543
2217446.486,0,0,634016332,219.86,103149989,0.07236325740814209,-0.16309896111488342,144.60504150390625,-0.016995050013065338
2217546.486,0,0,634016332,219.87,103149989,0.07129455357789993,-0.16627620160579681,144.48187255859375,-0.016609417274594307
2217646.486,0,0,634016332,219.87,103149989,0.06955256313085556,-0.16830438375473022,144.4091796875,-0.01599951460957527
2217746.486,0,0,634016331,219.86,103149988,0.06863418966531754,-0.16381393373012543,144.31910705566406,-0.015831302851438522
2217846.486,0,0,634016331,219.86,103149988,0.06947475671768188,-0.16967500746250153,144.2618408203125,-0.016125457361340523
2217946.486,0,0,634016331,219.86,103149988,0.06950974464416504,-0.16615912318229675,144.14515686035156,-0.01606822945177555
2218046.486,0,0,634016331,219.86,103149988,0.06725313514471054,-0.16327837109565735,144.0700225830078,-0.016032224521040916
2218146.486,0,0,634016331,219.86,103149988,0.0708574652671814,-0.1637336015701294,143.9580841064453,-0.015869660302996635
2218246.486,0,0,634016331,219.86,103149988,0.07675103843212128,-0.16546939313411713,143.84228515625,-0.015188612043857574
2218346.486,0,0,634016331,219.86,103149988,0.07616012543439865,-0.16902512311935425,143.76571655273438,-0.014773262664675713
2218446.486,0,0,634016331,219.86,103149988,0.07203151285648346,-0.16341818869113922,143.68418884277344,-0.014767328277230263
2218546.486,0,0,634016331,219.85,103149988,0.07478335499763489,-0.16419558227062225,143.53140258789062,-0.014656754210591316
2218646.486,0,0,634016331,219.85,103149988,0.06725838035345078,-0.16477566957473755,143.42276000976562,-0.014700468629598618
2218746.486,0,0,634016331,219.85,103149988,0.07333308458328247,-0.15998034179210663,143.31591796875,-0.014536640606820583
2218846.486,0,0,634016331,219.85,103149988,0.07208085060119629,-0.1647685170173645,143.23387145996094,-0.014193025417625904
2218946.486,0,0,634016331,219.85,103149987,0.06653434038162231,-0.16216710209846497,143.18141174316406,-0.014182426035404205
2219046.486,0,0,634016331,219.85,103149987,0.06887879967689514,-0.16425886750221252,143.06405639648438,-0.014175640419125557
2219146.486,0,0,634016330,219.84,103149986,0.06534223258495331,-0.1647687554359436,142.99356079101562,-0.01360377762466669
2219246.486,0,0,634016330,219.84,103149986,0.06836585700511932,-0.16625407338142395,142.9121856689453,-0.013609671965241432
2219346.486,0,0,634016330,219.84,103149987,0.06896300613880157,-0.15884530544281006,142.84988403320312,-0.013380918651819229
2219446.486,0,0,634016330,219.84,103149987,0.06940100342035294,-0.16786089539527893,142.76300048828125,-0.013344591483473778
2219546.486,0,0,634016331,219.83,103149986,0.07329334318637848,-0.16181901097297668,142.6910858154297,-0.012984730303287506
2219646.486,0,0,634016331,219.83,103149986,0.07163570076227188,-0.16452127695083618,142.6489715576172,-0.012961022555828094
2219746.486,0,0,634016330,219.83,103149986,0.06753769516944885,-0.16289345920085907,142.6032257080078,-0.012830311432480812
2219846.486,0,0,634016330,219.83,103149986,0.0675976425409317,-0.16521120071411133,142.5318603515625,-0.012455467134714127
2219946.486,0,0,634016330,219.82,103149985,0.06913533806800842,-0.16139888763427734,142.45265197753906,-0.012676911428570747
2220046.486,0,0,634016330,219.82,103149985,0.0732031762599945,-0.16872352361679077,142.40394592285156,-0.012439227662980556
2220146.486,0,0,634016330,219.82,103149985,0.07098723202943802,-0.162492573261261,142.3585662841797,-0.012327956035733223
2220246.486,0,0,634016330,219.82,103149985,0.06977240741252899,-0.16333259642124176,142.27769470214844,-0.011939744465053082
2220346.486,0,0,634016330,219.81,103149985,0.0686485543847084,-0.16299434006214142,142.23046875,-0.011898217722773552
2220446.486,0,0,634016330,219.81,103149985,0.06880776584148407,-0.16334646940231323,142.20550537109375,-0.01127619668841362
2220546.486,0,0,634016330,219.8,103149984,0.07257363200187683,-0.16134457290172577,142.15635681152344,-0.011141682043671608
2220646.486,0,0,634016330,219.8,103149984,0.07692615687847137,-0.16510944068431854,142.08351135253906,-0.011359380558133125
2220746.486,0,0,634016330,219.8,103149983,0.0744728073477745,-0.16578957438468933,142.0265350341797,-0.01125291083008051
2220846.486,0,0,634016330,219.8,103149983,0.07335469871759415,-0.1647702157497406,141.97938537597656,-0.011030066758394241
2220946.486,0,0,634016330,219.79,103149984,0.06557980179786682,-0.16743500530719757,141.91156005859375,-0.010660039260983467
2221046.486,0,0,634016330,219.79,103149984,0.07043349742889404,-0.16479316353797913,141.81881713867188,-0.010177253745496273
2221146.486,0,0,634016330,219.78,103149983,0.06788527220487595,-0.16527147591114044,141.78236389160156,-0.010134465992450714
2221246.486,0,0,634016330,219.78,103149983,0.07565545290708542,-0.16242583096027374,141.72740173339844,-0.009751154109835625
2221346.486,0,0,634016330,219.78,103149983,0.06913229823112488,-0.16457213461399078,141.70297241210938,-0.009878380224108696
2221446.486,0,0,634016330,219.78,103149983,0.06442685425281525,-0.16502071917057037,141.65806579589844,-0.009747307747602463
2221546.486,0,0,634016330,219.77,103149982,0.07087242603302002,-0.16731998324394226,141.6059112548828,-0.009436304681003094
2221646.486,0,0,634016330,219.77,103149982,0.07416652143001556,-0.1628643423318863,141.51145935058594,-0.009029226377606392
2221746.486,0,0,634016331,219.76,103149982,0.06159386783838272,-0.16728198528289795,141.4709014892578,-0.008818755857646465
2221846.486,0,0,634016331,219.76,103149982,0.0768507570028305,-0.16912615299224854,141.40589904785156,-0.008552432991564274
2221946.486,0,0,634016331,219.75,103149982,0.07065015286207199,-0.16306254267692566,141.3605194091797,-0.008401582017540932
2222046.486,0,0,634016331,219.75,103149982,0.06965096294879913,-0.16259747743606567,141.31097412109375,-0.008197871036827564
2222146.486,0,0,634016331,219.75,103149982,0.07232782989740372,-0.17046254873275757,141.24118041992188,-0.007960427552461624
2222246.486,0,0,634016331,219.75,103149982,0.07091762870550156,-0.16474276781082153,141.19122314453125,-0.007729971781373024
2222346.486,0,0,634016331,219.74,103149981,0.07193557918071747,-0.16207480430603027,141.1457977294922,-0.007469591218978167
2222446.486,0,0,634016331,219.74,103149981,0.07154183834791183,-0.16322174668312073,141.07260131835938,-0.00711428839713335
2222546.486,0,0,634016331,219.74,103149980,0.07045793533325195,-0.16051273047924042,141.0331573486328,-0.006968725472688675
2222646.486,0,0,634016331,219.74,103149980,0.07058722525835037,-0.16480717062950134,141.0382080078125,-0.006900465581566095
2222746.486,0,0,634016331,219.73,103149980,0.06841065734624863,-0.16675150394439697,141.04000854492188,-0.006980421952903271
2222846.486,0,0,634016331,219.73,103149980,0.0706501454114914,-0.16614383459091187,141.02645874023438,-0.006892739329487085
2222946.486,0,0,634016332,219.73,103149980,0.06852161139249802,-0.16198575496673584,140.99864196777344,-0.006618638522922993
2223046.486,0,0,634016332,219.73,103149980,0.0755705013871193,-0.15992343425750732,141.01004028320312,-0.0063722822815179825
2223146.486,0,0,634016331,219.72,103149979,0.06743916869163513,-0.16465763747692108,140.9536590576172,-0.005721477326005697
2223246.486,0,0,634016331,219.72,103149979,0.07350586354732513,-0.16723470389842987,140.91494750976562,-0.005959892645478249
2223346.486,0,0,634016331,219.71,103149980,0.07236915081739426,-0.16601157188415527,140.83251953125,-0.005856785457581282
2223446.486,0,0,634016331,219.71,103149980,0.07529705762863159,-0.1668214052915573,140.85220336914062,-0.005973492283374071
2223546.486,0,0,634016332,219.7,103149979,0.06288328021764755,-0.16004514694213867,140.83168029785156,-0.005649219732731581
2223646.486,0,0,634016332,219.7,103149979,0.06785812228918076,-0.16196098923683167,140.7974090576172,-0.005506814923137426
2223746.486,0,0,634016332,219.7,103149979,0.06844876706600189,-0.16394048929214478,140.7524871826172,-0.004910018295049667
2223846.486,0,0,634016332,219.7,103149979,0.07614722102880478,-0.1644347459077835,140.72714233398438,-0.005253948736935854
2223946.486,0,0,634016332,219.7,103149979,0.07281551510095596,-0.15849581360816956,140.67555236816406,-0.005253984127193689
2224046.486,0,0,634016332,219.7,103149979,0.06967255473136902,-0.1641387641429901,140.64459228515625,-0.005254215560853481
2224146.486,0,0,634016331,219.69,103149979,0.06848723441362381,-0.16460373997688293,140.589599609375,-0.005072888918220997
2224246.486,0,0,634016331,219.69,103149979,0.07323417067527771,-0.15969814360141754,140.53468322753906,-0.004642902407795191
2224346.486,0,0,634016331,219.68,103149978,0.06415703892707825,-0.16848453879356384,140.55178833007812,-0.004657002631574869
2224446.486,0,0,634016331,219.68,103149978,0.07008988410234451,-0.16100814938545227,140.5352020263672,-0.004557324573397636
2224546.486,0,0,634016330,219.69,103149978,0.06792033463716507,-0.1611674726009369,140.47007751464844,-0.004201293457299471
2224646.486,0,0,634016330,219.69,103149978,0.07423288375139236,-0.16255944967269897,140.43804931640625,-0.004627425689250231
2224746.486,0,0,634016331,219.69,103149978,0.06758836656808853,-0.1651999056339264,140.40444946289062,-0.004549514967948198
2224846.486,0,0,634016331,219.69,103149978,0.07583247870206833,-0.1611587107181549,140.41714477539062,-0.004563816823065281
2224946.486,0,0,634016330,219.69,103149977,0.06925734132528305,-0.16240127384662628,140.40382385253906,-0.004397818818688393
2225046.486,0,0,634016330,219.69,103149977,0.07329373061656952,-0.16810476779937744,140.37918090820312,-0.004062548279762268
2225146.486,0,0,634016329,219.69,103149977,0.06852857023477554,-0.1640823483467102,140.35572814941406,-0.003810388268902898
2225246.486,0,0,634016329,219.69,103149977,0.06916645914316177,-0.16524125635623932,140.32162475585938,-0.0036662742495536804
2225346.486,0,0,634016329,219.69,103149976,0.07192780822515488,-0.1650293618440628,140.33387756347656,-0.0038405796512961388
2225446.486,0,0,634016329,219.69,103149976,0.07006405293941498,-0.1654851883649826,140.34286499023438,-0.004019652958959341
2225546.486,0,0,634016329,219.69,103149976,0.06127914413809776,-0.16276249289512634,140.32733154296875,-0.0036125020124018192
2225646.486,0,0,634016329,219.69,103149976,0.07322259992361069,-0.16433586180210114,140.27735900878906,-0.0033463211730122566
2225746.486,0,0,634016329,219.68,103149975,0.06939319521188736,-0.16389025747776031,140.2669219970703,-0.0030306593980640173
2225846.486,0,0,634016329,219.68,103149975,0.07242104411125183,-0.16716450452804565,140.27891540527344,-0.0028715766966342926
2225946.486,0,0,634016328,219.67,103149975,0.07385532557964325,-0.16929057240486145,140.2743682861328,-0.0028236594516783953
2226046.486,0,0,634016328,219.67,103149975,0.07209300249814987,-0.1685551106929779,140.2528533935547,-0.0027626613155007362
2226146.486,0,0,634016328,219.68,103149974,0.06812972575426102,-0.16699378192424774,140.24632263183594,-0.0029533023480325937
2226246.486,0,0,634016328,219.68,103149974,0.07113698869943619,-0.16512329876422882,140.23977661132812,-0.0026806092355400324
2226346.486,0,0,634016328,219.67,103149974,0.06743980944156647,-0.16418761014938354,140.217041015625,-0.0026864223182201385
2226446.486,0,0,634016328,219.67,103149974,0.07411705702543259,-0.1665394902229309,140.2027587890625,-0.0025743357837200165
2226546.486,0,0,634016328,219.67,103149973,0.06957946717739105,-0.16551046073436737,140.18399047851562,-0.0027359274681657553
2226646.486,0,0,634016328,219.67,103149973,0.07400824874639511,-0.16387271881103516,140.16871643066406,-0.002727970015257597
2226746.486,0,0,634016327,219.66,103149973,0.07012508809566498,-0.1617627888917923,140.16867065429688,-0.002789314603433013
2226846.486,0,0,634016327,219.66,103149973,0.06988620012998581,-0.1644190549850464,140.16873168945312,-0.002559702843427658
2226946.486,0,0,634016327,219.66,103149972,0.06955775618553162,-0.16408571600914001,140.1605682373047,-0.002337884623557329
2227046.486,0,0,634016327,219.66,103149972,0.06817467510700226,-0.17092978954315186,140.16038513183594,-0.0020585868041962385
2227146.486,0,0,634016327,219.66,103149970,0.07067784667015076,-0.1613582968711853,140.1316680908203,-0.0021749248262494802
2227246.486,0,0,634016327,219.66,103149970,0.07127338647842407,-0.16987015306949615,140.11146545410156,-0.0020046874415129423
2227346.486,0,0,634016326,219.66,103149970,0.0706695020198822,-0.16911277174949646,140.08340454101562,-0.002032567746937275
2227446.486,0,0,634016326,219.66,103149970,0.07017789781093597,-0.15091246366500854,140.09512329101562,-0.003293896559625864
2227546.486,0,0,634016326,219.66,103149969,0.011666886508464813,-0.14906340837478638,140.12562561035156,-0.0018207805696874857
2227646.486,0,0,634016326,219.66,103149969,0.06023547425866127,-0.1314317137002945,140.18357849121094,0.01537242904305458
2227746.486,0,0,634016326,219.66,103149967,-0.019348710775375366,-0.06270690262317657,140.4597930908203,0.042719610035419464
2227846.486,0,0,634016326,219.66,103149967,0.10180685669183731,0.025470010936260223,141.02490234375,0.08963890373706818
2227946.486,0,0,634016326,219.67,103149965,0.47749489545822144,-0.010088877752423286,142.07948303222656,0.1760755032300949
2228046.486,0,0,634016326,219.67,103149965,0.6729563474655151,0.008329086005687714,143.57835388183594,0.2520736753940582
2228146.486,0,0,634016323,219.66,103149965,0.7132976055145264,0.0016713120276108384,145.23411560058594,0.28976380825042725
2228246.486,0,0,634016323,219.66,103149965,0.7008788585662842,0.009068647399544716,147.05686950683594,0.3232569098472595
2228346.486,0,0,634016320,219.67,103149965,0.6862319707870483,-0.009811957366764545,149.14553833007812,0.3693443536758423
2228446.486,0,0,634016320,219.67,103149965,0.7045685052871704,-0.03219262510538101,151.4794158935547,0.40609610080718994
2228546.486,0,0,634016316,219.66,103149966,0.6949875354766846,-0.04193778336048126,153.8918914794922,0.41797441244125366
2228646.486,0,0,634016316,219.66,103149966,0.7483862042427063,-0.018737338483333588,156.2740478515625,0.4138481020927429
2228746.486,0,0,634016308,219.68,103149970,0.798143744468689,-0.00931838434189558,158.55877685546875,0.39681172370910645
2228846.486,0,0,634016308,219.68,103149970,0.830087423324585,0.006514849606901407,160.70272827148438,0.36928004026412964
2228946.486,0,0,634016299,219.68,103149972,0.8452678918838501,0.01818034052848816,162.6201171875,0.33719879388809204
2229046.486,0,0,634016299,219.68,103149972,0.8569502830505371,0.010602819733321667,164.40850830078125,0.3065812885761261
2229146.486,0,0,634016288,219.67,103149976,0.8952934741973877,0.0019874852150678635,165.9737091064453,0.27282097935676575
2229246.486,0,0,634016288,219.67,103149976,0.912350058555603,-0.043564047664403915,167.33706665039062,0.2359856367111206
2229346.486,0,0,634016275,219.68,103149979,0.9754475951194763,-0.04229643940925598,168.54200744628906,0.20431721210479736
2229446.486,0,0,634016275,219.68,103149979,1.0803261995315552,-0.08407138288021088,169.59547424316406,0.17760054767131805
2229546.486,0,0,634016258,219.69,103149982,1.1284019947052002,-0.10789817571640015,170.45668029785156,0.14792557060718536
2229646.486,0,0,634016258,219.69,103149982,1.138976812362671,-0.10756810754537582,171.1757354736328,0.12291436642408371
2229746.486,0,0,634016238,219.7,103149985,1.1426842212677002,-0.1274043321609497,171.8055877685547,0.10658900439739227
2229846.486,0,0,634016238,219.7,103149985,1.1463085412979126,-0.1379455178976059,172.34913635253906,0.09055724740028381
2229946.486,0,0,634016217,219.71,103149990,1.1647199392318726,-0.1260947585105896,172.84800720214844,0.07580786198377609
2230046.486,0,0,634016217,219.71,103149990,1.2597734928131104,-0.13778802752494812,173.30203247070312,0.06423546373844147
2230146.486,0,0,634016194,219.72,103149993,1.2562692165374756,-0.16063939034938812,173.6703643798828,0.05091084912419319
2230246.486,0,0,634016194,219.72,103149993,1.3481916189193726,-0.14932028949260712,173.97377014160156,0.03995320945978165
2230346.486,0,0,634016168,219.74,103149998,1.3780723810195923,-0.1443018615245819,174.23434448242188,0.03598121553659439
2230446.486,0,0,634016168,219.74,103149998,1.4386192560195923,-0.14844857156276703,174.50634765625,0.030855465680360794
2230546.486,0,0,634016139,219.76,103150003,1.5542964935302734,-0.15871454775333405,174.7399139404297,0.023813754320144653
2230646.486,0,0,634016139,219.76,103150003,1.5811517238616943,-0.1699824184179306,174.91685485839844,0.01975124701857567
2230746.486,0,0,634016108,219.76,103150009,1.6837892532348633,-0.1924169957637787,175.10003662109375,0.013583664782345295
2230846.486,0,0,634016108,219.76,103150009,1.7221063375473022,-0.17799115180969238,175.27236938476562,0.00942004844546318
2230946.486,0,0,634016076,219.77,103150014,1.817875862121582,-0.1735323965549469,175.45361328125,0.009287411347031593
2231046.486,0,0,634016076,219.77,103150014,1.9541738033294678,-0.15786471962928772,175.66111755371094,0.012524556368589401
2231146.486,0,0,634016041,219.78,103150020,2.0327744483947754,-0.18544693291187286,175.879150390625,0.01494305208325386
2231246.486,0,0,634016041,219.78,103150020,2.036677598953247,-0.1833832710981369,176.09463500976562,0.01378947775810957
2231346.486,0,0,634016003,219.8,103150026,2.144261360168457,-0.18805959820747375,176.31106567382812,0.017287995666265488
2231446.486,0,0,634016003,219.8,103150026,2.208739757537842,-0.20737332105636597,176.59072875976562,0.01712096855044365
2231546.486,0,0,634015964,219.82,103150032,2.2961580753326416,-0.13692310452461243,176.86106872558594,0.017224902287125587
2231646.486,0,0,634015964,219.82,103150032,2.360661029815674,-0.13403502106666565,177.08294677734375,0.014436319470405579
2231746.486,0,0,634015921,219.83,103150039,2.393824815750122,-0.18039408326148987,177.3349609375,0.012895659543573856
2231846.486,0,0,634015921,219.83,103150039,2.345766067504883,-0.23594659566879272,177.55276489257812,0.009587970562279224
2231946.486,0,0,634015877,219.84,103150046,2.2842631340026855,-0.13825470209121704,177.77886962890625,0.00911112129688263
2232046.486,0,0,634015877,219.84,103150046,2.2198853492736816,-0.22227801382541656,177.9929962158203,0.008591500110924244
2232146.486,0,0,634015831,219.85,103150052,2.191948890686035,-0.1952873319387436,178.17977905273438,0.0030885706655681133
2232246.486,0,0,634015831,219.85,103150052,2.209880828857422,-0.2797205150127411,178.3397979736328,0.004889033734798431
2232346.486,0,0,634015783,219.86,103150060,2.0280137062072754,-0.17151980102062225,178.5299072265625,0.004598693922162056
2232446.486,0,0,634015783,219.86,103150060,2.0647828578948975,-0.22114990651607513,178.74017333984375,0.005596127361059189
2232546.486,0,0,634015736,219.87,103150068,1.8399258852005005,-0.2681679129600525,178.9249725341797,0.0016492942813783884
2232646.486,0,0,634015736,219.87,103150068,1.8553186655044556,-0.2216796576976776,179.0944366455078,-0.0002535164530854672
2232746.486,0,0,634015687,219.89,103150076,1.704242467880249,-0.21874910593032837,179.22328186035156,-0.0005025830469094217
2232846.486,0,0,634015687,219.89,103150076,1.6634414196014404,-0.2258237898349762,179.41201782226562,0.002613434102386236
2232946.486,0,0,634015639,219.9,103150083,1.6112048625946045,-0.2052564024925232,179.6095428466797,0.0037084766663610935
2233046.486,0,0,634015639,219.9,103150083,1.5796657800674438,-0.223812997341156,179.76658630371094,0.005429631099104881
2233146.486,0,0,634015590,219.93,103150091,1.5749351978302002,-0.22458821535110474,179.95570373535156,0.008731836453080177
2233246.486,0,0,634015590,219.93,103150091,1.5273964405059814,-0.20830386877059937,180.11903381347656,0.010819490998983383
2233346.486,0,0,634015542,219.95,103150097,1.5122952461242676,-0.17913345992565155,180.27420043945312,0.009725325740873814
2233446.486,0,0,634015542,219.95,103150097,1.4822661876678467,-0.1635994166135788,180.41989135742188,0.008392665535211563
2233546.486,0,0,634015494,219.96,103150104,1.545785903930664,-0.15160585939884186,180.60626220703125,0.014016138389706612
2233646.486,0,0,634015494,219.96,103150104,1.568148136138916,-0.11792396754026413,180.8156280517578,0.018410928547382355
2233746.486,0,0,634015446,219.98,103150110,1.5220199823379517,-0.13331563770771027,181.01956176757812,0.017493780702352524
2233846.486,0,0,634015446,219.98,103150110,1.5224590301513672,-0.14649349451065063,181.22589111328125,0.01556316576898098
2233946.486,0,0,634015399,219.99,103150116,1.5572404861450195,-0.13170430064201355,181.44619750976562,0.018211454153060913
2234046.486,0,0,634015399,219.99,103150116,1.5283008813858032,-0.21617816388607025,181.67189025878906,0.01995769888162613
2234146.486,0,0,634015351,220,103150121,1.5808701515197754,-0.12553171813488007,181.9210205078125,0.021754255518317223
2234246.486,0,0,634015351,220,103150121,1.5369620323181152,-0.14202871918678284,182.10671997070312,0.020566426217556
2234346.486,0,0,634015305,220.01,103150125,1.5879274606704712,-0.18108567595481873,182.33856201171875,0.021175002679228783
2234446.486,0,0,634015305,220.01,103150125,1.5814399719238281,-0.17218641936779022,182.55563354492188,0.023209068924188614
2234546.486,0,0,634015257,220.01,103150130,1.588576316833496,-0.1186983659863472,182.74783325195312,0.02449209615588188
2234646.486,0,0,634015257,220.01,103150130,1.5818617343902588,-0.10197196900844574,182.98284912109375,0.02381986379623413
2234746.486,0,0,634015209,220.03,103150133,1.5907516479492188,-0.14966168999671936,183.20379638671875,0.021358270198106766
2234846.486,0,0,634015209,220.03,103150133,1.5855308771133423,-0.17603395879268646,183.38653564453125,0.0200694240629673
2234946.486,0,0,634015162,220.03,103150137,1.5495911836624146,-0.18366026878356934,183.6058349609375,0.021055059507489204
2235046.486,0,0,634015162,220.03,103150137,1.635634422302246,-0.1836392879486084,183.79693603515625,0.021336304023861885
2235146.486,0,0,634015114,220.05,103150139,1.5998857021331787,-0.14802800118923187,183.97242736816406,0.019592395052313805
2235246.486,0,0,634015114,220.05,103150139,1.5661952495574951,-0.14223584532737732,184.14202880859375,0.02141227200627327
2235346.486,0,0,634015068,220.06,103150141,1.636151671409607,-0.16519613564014435,184.31893920898438,0.020954839885234833
2235446.486,0,0,634015068,220.06,103150141,1.5927834510803223,-0.21121257543563843,184.46664428710938,0.015871379524469376
2235546.486,0,0,634015020,220.06,103150143,1.600167989730835,-0.15185151994228363,184.6209259033203,0.015627842396497726
2235646.486,0,0,634015020,220.06,103150143,1.5834137201309204,-0.18231038749217987,184.80746459960938,0.017636410892009735
2235746.486,0,0,634014973,220.08,103150144,1.6133146286010742,-0.1976640522480011,184.96925354003906,0.018233060836791992
2235846.486,0,0,634014973,220.08,103150144,1.56255042552948,-0.215145543217659,185.1539764404297,0.016469215974211693
2235946.486,0,0,634014927,220.07,103150145,1.6235346794128418,-0.16390468180179596,185.32481384277344,0.017217619344592094
2236046.486,0,0,634014927,220.07,103150145,1.616727352142334,-0.20353640615940094,185.4940643310547,0.015728965401649475
2236146.486,0,0,634014879,220.09,103150145,1.6697213649749756,-0.21701887249946594,185.68032836914062,0.013860227540135384
2236246.486,0,0,634014879,220.09,103150145,1.6511417627334595,-0.20486365258693695,185.7759552001953,0.011351482942700386
2236346.486,0,0,634014831,220.11,103150146,1.6056203842163086,-0.131662517786026,185.90797424316406,0.009622144512832165
2236446.486,0,0,634014831,220.11,103150146,1.6461610794067383,-0.17502078413963318,186.03237915039062,0.011637510731816292
2236546.486,0,0,634014783,220.11,103150146,1.603765606880188,-0.27103304862976074,186.15943908691406,0.010837459936738014
2236646.486,0,0,634014783,220.11,103150146,1.6426706314086914,-0.22772341966629028,186.28114318847656,0.00925140269100666
2236746.486,0,0,634014736,220.11,103150147,1.5982320308685303,-0.22682790458202362,186.4179229736328,0.006788432598114014
2236846.486,0,0,634014736,220.11,103150147,1.6221176385879517,-0.18045231699943542,186.4942626953125,0.009308074600994587
2236946.486,0,0,634014689,220.13,103150146,1.6451046466827393,-0.17375457286834717,186.65249633789062,0.011907784268260002
2237046.486,0,0,634014689,220.13,103150146,1.6353613138198853,-0.23620358109474182,186.76565551757812,0.008549594320356846
2237146.486,0,0,634014641,220.14,103150144,1.612856149673462,-0.24227871000766754,186.8708953857422,0.0060999589040875435
2237246.486,0,0,634014641,220.14,103150144,1.6684366464614868,-0.2607728838920593,186.95645141601562,0.0037380182184278965
2237346.486,0,0,634014593,220.15,103150144,1.5621122121810913,-0.2118799090385437,186.98956298828125,-0.0002139333519153297
2237446.486,0,0,634014593,220.15,103150144,1.647749900817871,-0.1799769401550293,187.04769897460938,0.0019409693777561188
2237546.486,0,0,634014546,220.15,103150143,1.6187900304794312,-0.21363981068134308,187.134765625,0.0061043002642691135
2237646.486,0,0,634014546,220.15,103150143,1.678558111190796,-0.28203731775283813,187.20042419433594,0.003450651653110981
2237746.486,0,0,634014498,220.16,103150142,1.6318832635879517,-0.20736612379550934,187.2364501953125,-0.003739683423191309
2237846.486,0,0,634014498,220.16,103150142,1.5821295976638794,-0.22942975163459778,187.3085174560547,-0.0007542142411693931
2237946.486,0,0,634014450,220.16,103150141,1.7178773880004883,-0.2336093783378601,187.3635711669922,0.002239885739982128
2238046.486,0,0,634014450,220.16,103150141,1.58509361743927,-0.20976398885250092,187.41636657714844,0.000635411124676466
2238146.486,0,0,634014403,220.17,103150140,1.6775726079940796,-0.24448801577091217,187.47048950195312,-0.0003507877408992499
2238246.486,0,0,634014403,220.17,103150140,1.5401763916015625,-0.2333860993385315,187.49758911132812,0.001274813781492412
2238346.486,0,0,634014356,220.18,103150139,1.7014317512512207,-0.29384645819664,187.53250122070312,-0.003085341537371278
2238446.486,0,0,634014356,220.18,103150139,1.5876644849777222,-0.22906452417373657,187.52740478515625,-0.0045501720160245895
2238546.486,0,0,634014308,220.18,103150137,1.6362292766571045,-0.26934677362442017,187.5718994140625,0.000925443135201931
2238646.486,0,0,634014308,220.18,103150137,1.6435383558273315,-0.17876757681369781,187.63119506835938,0.0005561973666772246
2238746.486,0,0,634014260,220.2,103150137,1.6381763219833374,-0.26023805141448975,187.65866088867188,-0.00031597312772646546
2238846.486,0,0,634014260,220.2,103150137,1.6340994834899902,-0.3123859167098999,187.68251037597656,-0.0024311463348567486
2238946.486,0,0,634014212,220.2,103150136,1.5794092416763306,-0.1766175776720047,187.69580078125,-0.0027308145072311163
2239046.486,0,0,634014212,220.2,103150136,1.6800286769866943,-0.2344108372926712,187.7396697998047,-0.0032680067233741283
2239146.486,0,0,634014164,220.21,103150134,1.6296242475509644,-0.2741323709487915,187.72137451171875,-0.003928328398615122
2239246.486,0,0,634014164,220.21,103150134,1.6572113037109375,-0.1884419173002243,187.7705078125,-0.002925381762906909
2239346.486,0,0,634014116,220.22,103150134,1.5553267002105713,-0.2732127010822296,187.8304901123047,-0.003403971903026104
2239446.486,0,0,634014116,220.22,103150134,1.6613447666168213,-0.25984397530555725,187.856689453125,-0.003503665793687105
2239546.486,0,0,634014068,220.23,103150133,1.623429298400879,-0.26152700185775757,187.87452697753906,-0.005599113181233406
2239646.486,0,0,634014068,220.23,103150133,1.626374363899231,-0.23958805203437805,187.93052673339844,-0.006868394091725349
2239746.486,0,0,634014020,220.23,103150131,1.5769740343093872,-0.2651258707046509,187.9385986328125,-0.005306799430400133
2239846.486,0,0,634014020,220.23,103150131,1.591308355331421,-0.2539936602115631,187.95147705078125,-0.0037228509318083525
2239946.486,0,0,634013972,220.23,103150130,1.6357625722885132,-0.2632782459259033,188.00088500976562,-0.00264303688891232
2240046.486,0,0,634013972,220.23,103150130,1.6183232069015503,-0.19525785744190216,188.06015014648438,-0.0029325562063604593
2240146.486,0,0,634013924,220.24,103150129,1.6040016412734985,-0.30279457569122314,188.0947723388672,-0.0026138985995203257
2240246.486,0,0,634013924,220.24,103150129,1.6685147285461426,-0.20404760539531708,188.17041015625,-0.0017977474490180612
2240346.486,0,0,634013875,220.25,103150128,1.5754239559173584,-0.26896393299102783,188.24949645996094,-0.0010653847130015492
2240446.486,0,0,634013875,220.25,103150128,1.6900209188461304,-0.28559163212776184,188.26480102539062,-0.007791788317263126
2240546.486,0,0,634013827,220.25,103150127,1.5757060050964355,-0.19391585886478424,188.2907257080078,-0.007829786278307438
2240646.486,0,0,634013827,220.25,103150127,1.654681921005249,-0.1867533177137375,188.31805419921875,-0.004223703406751156
2240746.486,0,0,634013779,220.24,103150126,1.6501597166061401,-0.24284562468528748,188.3311004638672,-0.004773853346705437
2240846.486,0,0,634013779,220.24,103150126,1.5927456617355347,-0.30562180280685425,188.3197021484375,-0.008153744973242283
2240946.486,0,0,634013733,220.29,103150125,1.6054939031600952,-0.2145071029663086,188.3131866455078,-0.009391486644744873
2241046.486,0,0,634013733,220.29,103150125,1.6767247915267944,-0.2670121192932129,188.3379364013672,-0.00748787447810173
2241146.486,0,0,634013685,220.31,103150124,1.57647705078125,-0.2689173221588135,188.3201141357422,-0.008746746927499771
2241246.486,0,0,634013685,220.31,103150124,1.6214516162872314,-0.24621054530143738,188.3568115234375,-0.003623975906521082
2241346.486,0,0,634013637,220.32,103150123,1.6089977025985718,-0.19214081764221191,188.37391662597656,-0.004688396118581295
2241446.486,0,0,634013637,220.32,103150123,1.6101961135864258,-0.2512877285480499,188.4302978515625,-0.0028348765335977077
2241546.486,0,0,634013589,220.34,103150123,1.6716067790985107,-0.1831567883491516,188.4110870361328,-0.00416993722319603
2241646.486,0,0,634013589,220.34,103150123,1.5958666801452637,-0.32034048438072205,188.4124298095703,-0.005064595025032759
2241746.486,0,0,634013540,220.33,103150123,1.6839728355407715,-0.26987141370773315,188.42532348632812,-0.008006393909454346
2241846.486,0,0,634013540,220.33,103150123,1.6186121702194214,-0.2695121467113495,188.46347045898438,-0.00738236028701067
2241946.486,0,0,634013491,220.32,103150125,1.7171096801757812,-0.2808421552181244,188.4629669189453,-0.006954893469810486
2242046.486,0,0,634013491,220.32,103150125,1.603799819946289,-0.2486685812473297,188.441650390625,-0.0074750627391040325
2242146.486,0,0,634013443,220.34,103150124,1.63968825340271,-0.24816358089447021,188.432861328125,-0.006761788856238127
2242246.486,0,0,634013443,220.34,103150124,1.6346538066864014,-0.21159690618515015,188.45689392089844,-0.005591268185526133
2242346.486,0,0,634013395,220.35,103150125,1.6096742153167725,-0.27872025966644287,188.48902893066406,-0.005699348635971546
2242446.486,0,0,634013395,220.35,103150125,1.6419804096221924,-0.2680204510688782,188.49337768554688,-0.007638672366738319
2242546.486,0,0,634013349,220.37,103150123,1.5777502059936523,-0.2136555165052414,188.4987030029297,-0.004604187794029713
2242646.486,0,0,634013349,220.37,103150123,1.496720314025879,-0.24850142002105713,188.47564697265625,-0.0017444893019273877
2242746.486,0,0,634013303,220.41,103150123,1.461025595664978,-0.20618146657943726,188.54945373535156,0.004815804306417704
2242846.486,0,0,634013303,220.41,103150123,1.3888674974441528,-0.22130268812179565,188.61614990234375,0.00624488852918148
2242946.486,0,0,634013258,220.43,103150122,1.289279580116272,-0.18212798237800598,188.69662475585938,0.007455326616764069
2243046.486,0,0,634013258,220.43,103150122,1.2272815704345703,-0.18935279548168182,188.78709411621094,0.011963270604610443
2243146.486,0,0,634013212,220.42,103150122,1.0226976871490479,-0.14848501980304718,188.90875244140625,0.012943980284035206
2243246.486,0,0,634013212,220.42,103150122,0.9582765102386475,-0.16394507884979248,189.01002502441406,0.016778506338596344
2243346.486,0,0,634013165,220.41,103150123,0.7595287561416626,-0.1474509984254837,189.0864715576172,0.021394753828644753
2243446.486,0,0,634013165,220.41,103150123,0.5772160887718201,-0.11457081139087677,189.18492126464844,0.02316978946328163
2243546.486,0,0,634013124,220.4,103150121,0.501232922077179,-0.09387867152690887,189.29823303222656,0.026999492198228836
2243646.486,0,0,634013124,220.4,103150121,0.38826191425323486,-0.13151508569717407,189.44700622558594,0.03286963701248169
2243746.486,0,0,634013085,220.41,103150119,0.3172760009765625,-0.09136715531349182,189.61386108398438,0.03457409143447876
2243846.486,0,0,634013085,220.41,103150119,0.290024995803833,-0.07056751847267151,189.7655487060547,0.03803974390029907
2243946.486,0,0,634013048,220.42,103150117,0.19837859272956848,-0.06781423836946487,189.96693420410156,0.040167633444070816
2244046.486,0,0,634013048,220.42,103150117,0.278175950050354,-0.11942824721336365,190.16757202148438,0.04151357710361481
2244146.486,0,0,634013014,220.42,103150114,0.2259177416563034,-0.022064341232180595,190.39193725585938,0.04550708085298538
2244246.486,0,0,634013014,220.42,103150114,0.24279509484767914,-0.03480105847120285,190.66693115234375,0.053795065730810165
2244346.486,0,0,634012982,220.42,103150109,0.27732986211776733,-0.07099838554859161,190.94259643554688,0.05273045599460602
2244446.486,0,0,634012982,220.42,103150109,0.2354336678981781,-0.02186543121933937,191.206787109375,0.05483754724264145
2244546.486,0,0,634012954,220.42,103150104,0.2502738833427429,-0.08253459632396698,191.47756958007812,0.0568043477833271
2244646.486,0,0,634012954,220.42,103150104,0.19140253961086273,-0.11663474142551422,191.723388671875,0.05277753993868828
2244746.486,0,0,634012927,220.43,103150098,0.22730086743831635,-0.09387508034706116,191.95787048339844,0.05197101831436157
2244846.486,0,0,634012927,220.43,103150098,0.23324532806873322,-0.07067170739173889,192.18359375,0.04926665127277374
2244946.486,0,0,634012902,220.42,103150092,0.23694810271263123,-0.09517920017242432,192.3867645263672,0.04482032358646393
2245046.486,0,0,634012902,220.42,103150092,0.23384566605091095,-0.0958116352558136,192.55667114257812,0.03965488448739052
2245146.486,0,0,634012879,220.41,103150086,0.1747557371854782,-0.13882344961166382,192.6943817138672,0.03389599174261093
2245246.486,0,0,634012879,220.41,103150086,0.14098308980464935,-0.15806777775287628,192.76882934570312,0.02644934691488743
2245346.486,0,0,634012858,220.42,103150081,0.033681321889162064,-0.1456809937953949,192.82168579101562,0.019097793847322464
2245446.486,0,0,634012858,220.42,103150081,-0.08953160792589188,-0.18745051324367523,192.7925567626953,0.010097287595272064
2245546.486,0,0,634012839,220.42,103150075,-0.4800717830657959,-0.15535861253738403,192.73385620117188,0.0011596869444474578
2245646.486,0,0,634012839,220.42,103150075,-0.48988789319992065,-0.08334051817655563,192.7611846923828,0.014661341905593872
2245746.486,0,0,634012822,220.43,103150069,-0.5481148958206177,-0.12277135252952576,192.81719970703125,0.024888306856155396
2245846.486,0,0,634012822,220.43,103150069,-0.9058883190155029,-0.12407048791646957,192.8886260986328,0.02630527690052986
2245946.486,0,0,634012809,220.45,103150064,-2.128119468688965,0.050686344504356384,193.1393280029297,0.053569674491882324
2246046.486,0,0,634012809,220.45,103150064,-2.4052741527557373,0.155300572514534,194.07382202148438,0.15036693215370178
2246146.486,0,0,634012801,220.45,103150057,-1.6105294227600098,-0.041437894105911255,195.42919921875,0.23273338377475739
2246246.486,0,0,634012801,220.45,103150057,-1.550581455230713,-0.0772872120141983,196.86749267578125,0.24682365357875824
2246346.486,0,0,634012796,220.46,103150052,-1.3855582475662231,-0.0007707863114774227,198.44866943359375,0.27438387274742126
2246446.486,0,0,634012796,220.46,103150052,-1.1041148900985718,0.06830050051212311,200.3037872314453,0.32017916440963745
2246546.486,0,0,634012795,220.45,103150047,-0.7399393320083618,-0.11711667478084564,202.2886199951172,0.35068097710609436
2246646.486,0,0,634012795,220.45,103150047,-0.44168907403945923,-0.19772624969482422,204.3301239013672,0.36135491728782654
2246746.486,0,0,634012796,220.43,103150045,0.04104267433285713,-0.39835283160209656,206.2323760986328,0.3471822142601013
2246846.486,0,0,634012796,220.43,103150045,0.38469839096069336,-0.5305709838867188,207.89015197753906,0.3067350685596466
2246946.486,0,0,634012796,220.43,103150043,0.45291897654533386,-0.6039881706237793,209.26824951171875,0.25872743129730225
2247046.486,0,0,634012796,220.43,103150043,0.35583359003067017,-0.4043825566768646,210.44920349121094,0.22630558907985687
2247146.486,0,0,634012797,220.43,103150042,0.15341773629188538,-0.17264916002750397,211.6782989501953,0.2242177575826645
2247246.486,0,0,634012797,220.43,103150042,-0.04910234361886978,0.047670330852270126,213.0845184326172,0.2536318600177765
2247346.486,0,0,634012796,220.44,103150041,0.041725046932697296,0.013821620494127274,214.70555114746094,0.28977781534194946
2247446.486,0,0,634012796,220.44,103150041,0.11256670951843262,-0.06314580142498016,216.23052978515625,0.28234055638313293
2247546.486,0,0,634012795,220.45,103150039,0.27500444650650024,-0.18799802660942078,217.46066284179688,0.24284914135932922
2247646.486,0,0,634012795,220.45,103150039,0.6509684920310974,-0.5436437726020813,217.94589233398438,0.11828697472810745
2247746.486,0,0,634012792,220.44,103150036,0.38343116641044617,-0.5842349529266357,217.3701171875,-0.08657918125391006
2247846.486,0,0,634012792,220.44,103150036,0.25701436400413513,-0.5421183109283447,216.3155059814453,-0.19431652128696442
2247946.486,0,0,634012788,220.45,103150035,0.1997932493686676,-0.4460987150669098,215.04336547851562,-0.2300989031791687
2248046.486,0,0,634012788,220.45,103150035,0.29991763830184937,-0.3307933211326599,213.62660217285156,-0.2539737820625305
2248146.486,0,0,634012784,220.45,103150034,0.30564457178115845,-0.15861867368221283,211.9822998046875,-0.28934046626091003
2248246.486,0,0,634012784,220.45,103150034,0.20542572438716888,-0.17340515553951263,210.11915588378906,-0.31888917088508606
2248346.486,0,0,634012780,220.45,103150032,0.11667139083147049,-0.10564243793487549,208.1242218017578,-0.34056031703948975
2248446.486,0,0,634012780,220.45,103150032,-0.08711817115545273,-0.12296923995018005,206.12010192871094,-0.3476450443267822
2248546.486,0,0,634012778,220.46,103150029,-0.2315373420715332,-0.14739656448364258,204.18821716308594,-0.33393174409866333
2248646.486,0,0,634012778,220.46,103150029,-0.17590399086475372,-0.16954605281352997,202.3979034423828,-0.30970728397369385
2248746.486,0,0,634012776,220.47,103150028,-0.09935160726308823,-0.274977445602417,200.69708251953125,-0.29837220907211304
2248846.486,0,0,634012776,220.47,103150028,0.09652508795261383,-0.3316293954849243,198.91238403320312,-0.30800458788871765
2248946.486,0,0,634012774,220.48,103150027,0.14937791228294373,-0.3090111315250397,197.00582885742188,-0.3313598334789276
2249046.486,0,0,634012774,220.48,103150027,0.10603341460227966,-0.22598721086978912,194.98452758789062,-0.3449578881263733
2249146.486,0,0,634012770,220.5,103150027,0.09586913883686066,-0.16519783437252045,193.14186096191406,-0.32957467436790466
2249246.486,0,0,634012770,220.5,103150027,-0.01738692820072174,-0.140390545129776,191.36732482910156,-0.309854120016098
2249346.486,0,0,634012768,220.5,103150026,0.040354736149311066,-0.2579522728919983,189.6068572998047,-0.3048533797264099
2249446.486,0,0,634012768,220.5,103150026,-0.03891250491142273,-0.2248624563217163,187.72796630859375,-0.3259159326553345
2249546.486,0,0,634012765,220.51,103150026,-0.046874020248651505,-0.16405309736728668,185.74642944335938,-0.34384649991989136
2249646.486,0,0,634012765,220.51,103150026,-0.09191548824310303,-0.2025609314441681,183.82484436035156,-0.3361249566078186
2249746.486,0,0,634012764,220.51,103150026,0.06880845874547958,-0.25151315331459045,181.94711303710938,-0.32245880365371704
2249846.486,0,0,634012764,220.51,103150026,0.16113398969173431,-0.29863712191581726,180.0458526611328,-0.3278654217720032
2249946.486,0,0,634012762,220.51,103150026,0.17300447821617126,-0.25243285298347473,178.0314178466797,-0.34890469908714294
2250046.486,0,0,634012762,220.51,103150026,0.010703133419156075,-0.18935085833072662,175.93646240234375,-0.35861679911613464
2250146.486,0,0,634012760,220.52,103150027,-0.027166686952114105,-0.16111193597316742,173.9385223388672,-0.34437990188598633
2250246.486,0,0,634012760,220.52,103150027,-0.04826405271887779,-0.16072021424770355,172.04473876953125,-0.3256445825099945
2250346.486,0,0,634012759,220.53,103150027,0.040585268288850784,-0.1984000951051712,170.2288360595703,-0.31870269775390625
2250446.486,0,0,634012759,220.53,103150027,0.062231823801994324,-0.1939237415790558,168.30372619628906,-0.3287011682987213
2250546.486,0,0,634012757,220.54,103150028,0.06991716474294662,-0.21853598952293396,166.32391357421875,-0.3412674069404602
2250646.486,0,0,634012757,220.54,103150028,-0.008304554969072342,-0.19688282907009125,164.392333984375,-0.33846428990364075
2250746.486,0,0,634012757,220.55,103150028,0.04468531906604767,-0.16023099422454834,162.533447265625,-0.3263440728187561
2250846.486,0,0,634012757,220.55,103150028,0.04251914471387863,-0.22209659218788147,160.67674255371094,-0.320673406124115
2250946.486,0,0,634012755,220.56,103150028,0.014422080479562283,-0.3051888644695282,158.80181884765625,-0.3266339898109436
2251046.486,0,0,634012755,220.56,103150028,0.03748069703578949,-0.21091172099113464,156.89109802246094,-0.3334440588951111
2251146.486,0,0,634012755,220.57,103150028,-0.07622669637203217,-0.14958176016807556,154.97772216796875,-0.32919174432754517
2251246.486,0,0,634012755,220.57,103150028,0.013185190036892891,-0.20462915301322937,153.1243438720703,-0.31654202938079834
2251346.486,0,0,634012754,220.57,103150028,0.006045120768249035,-0.18847724795341492,151.3143768310547,-0.3101550042629242
2251446.486,0,0,634012754,220.57,103150028,0.04830045998096466,-0.17703251540660858,149.4544677734375,-0.3135232627391815
2251546.486,0,0,634012754,220.56,103150027,0.035499561578035355,-0.17597174644470215,147.56988525390625,-0.317950963973999
2251646.486,0,0,634012754,220.56,103150027,0.00784294493496418,-0.16564470529556274,145.73983764648438,-0.31563013792037964
2251746.486,0,0,634012754,220.56,103150026,0.052210621535778046,-0.18355965614318848,143.93772888183594,-0.3121344745159149
2251846.486,0,0,634012754,220.56,103150026,0.053514331579208374,-0.16268031299114227,142.10757446289062,-0.30998802185058594
2251946.486,0,0,634012754,220.57,103150026,0.06417937576770782,-0.18205058574676514,140.28404235839844,-0.31021180748939514
2252046.486,0,0,634012754,220.57,103150026,0.04758823662996292,-0.18113155663013458,138.4585418701172,-0.3127550184726715
2252146.486,0,0,634012754,220.57,103150025,0.0688861757516861,-0.18552270531654358,136.6336669921875,-0.3162619471549988
2252246.486,0,0,634012754,220.57,103150025,0.024823948740959167,-0.17396485805511475,134.701171875,-0.3221845328807831
2252346.486,0,0,634012754,220.57,103150022,0.004891398828476667,-0.20255428552627563,132.79176330566406,-0.3246888518333435
2252446.486,0,0,634012754,220.57,103150022,0.03629717230796814,-0.19883231818675995,130.90162658691406,-0.3246443271636963
2252546.486,0,0,634012755,220.57,103150021,0.03749791532754898,-0.17270256578922272,128.97412109375,-0.3251778483390808
2252646.486,0,0,634012755,220.57,103150021,-0.004558291751891375,-0.1567460596561432,127.10446166992188,-0.3192741572856903
2252746.486,0,0,634012755,220.58,103150018,-0.040025874972343445,-0.11224985867738724,125.42003631591797,-0.2952129542827606
2252846.486,0,0,634012755,220.58,103150018,-0.015708016231656075,-0.13392406702041626,123.8613510131836,-0.2594802975654602
2252946.486,0,0,634012755,220.58,103150014,0.02373019978404045,-0.13784709572792053,122.47760772705078,-0.23033998906612396
2253046.486,0,0,634012755,220.58,103150014,0.026233330368995667,-0.11378812789916992,121.23509979248047,-0.20834270119667053
2253146.486,0,0,634012754,220.59,103150010,0.00005916734517086297,-0.09556951373815536,120.11153411865234,-0.187966987490654
2253246.486,0,0,634012754,220.59,103150010,-0.1075938418507576,-0.07596594840288162,119.16827392578125,-0.15783214569091797
2253346.486,0,0,634012755,220.59,103150004,-0.029366325587034225,-0.07965319603681564,118.45574951171875,-0.11053487658500671
2253446.486,0,0,634012755,220.59,103150004,-0.13634371757507324,-0.08403056859970093,118.06209564208984,-0.06262490898370743
2253546.486,0,0,634012755,220.57,103149996,-0.09854834526777267,-0.13771092891693115,117.80805206298828,-0.029587073251605034
2253646.486,0,0,634012755,220.57,103149996,-0.14446917176246643,-0.14720645546913147,117.66883850097656,-0.012733832001686096
2253746.486,0,0,634012755,220.57,103149987,-0.010910195298492908,-0.1309359073638916,117.57386016845703,0.0025696216616779566
2253846.486,0,0,634012755,220.57,103149987,0.1138869896531105,-0.16965286433696747,117.63430786132812,0.018412847071886063
2253946.486,0,0,634012755,220.57,103149980,0.28044283390045166,-0.22415213286876678,117.7857894897461,0.03802479803562164
2254046.486,0,0,634012755,220.57,103149980,0.7714246511459351,-0.17807132005691528,118.075439453125,0.05873052030801773
2254146.486,0,0,634012753,220.59,103149974,1.0005061626434326,-0.17475822567939758,118.42919158935547,0.07076248526573181
2254246.486,0,0,634012753,220.59,103149974,1.526856780052185,-0.2499256134033203,118.83867645263672,0.0847441554069519
2254346.486,0,0,634012751,220.59,103149977,1.5208334922790527,-0.23814216256141663,119.14820098876953,0.07013896852731705
2254446.486,0,0,634012751,220.59,103149977,1.3205569982528687,-0.13351322710514069,119.44770812988281,0.06444107741117477
2254546.486,0,0,634012748,220.6,103149985,1.2353379726409912,-0.05990038439631462,120.11561584472656,0.11255156248807907
2254646.486,0,0,634012748,220.6,103149985,1.3512669801712036,-0.09920234978199005,120.9839096069336,0.1564144492149353
2254746.486,0,0,634012742,220.6,103150000,1.3067213296890259,-0.18721552193164825,121.76431274414062,0.14117838442325592
2254846.486,0,0,634012742,220.6,103150000,1.1899000406265259,-0.19841408729553223,122.2817153930664,0.09651367366313934
2254946.486,0,0,634012736,220.6,103150020,1.1361279487609863,-0.20920081436634064,122.58116912841797,0.06398840248584747
2255046.486,0,0,634012736,220.6,103150020,1.13353431224823,-0.24803024530410767,122.75006103515625,0.043019164353609085
2255146.486,0,0,634012728,220.6,103150047,1.1994949579238892,-0.23882487416267395,122.82854461669922,0.023136964067816734
2255246.486,0,0,634012728,220.6,103150047,1.2205097675323486,-0.2052815854549408,122.80221557617188,0.0077480897307395935
2255346.486,0,0,634012719,220.59,103150078,1.1776435375213623,-0.18789851665496826,122.70732116699219,-0.0034631856251507998
2255446.486,0,0,634012719,220.59,103150078,1.2119781970977783,-0.19936031103134155,122.60826873779297,-0.007930910214781761
2255546.486,0,0,634012709,220.59,103150116,1.2768186330795288,-0.1639750599861145,122.52484130859375,-0.008902313187718391
2255646.486,0,0,634012709,220.59,103150116,1.3356873989105225,-0.21062259376049042,122.39739227294922,-0.010382158681750298
2255746.486,0,0,634012697,220.58,103150158,1.3634282350540161,-0.24758478999137878,122.19628143310547,-0.025868618860840797
2255846.486,0,0,634012697,220.58,103150158,1.3192427158355713,-0.21742621064186096,121.93221282958984,-0.03758666291832924
2255946.486,0,0,634012685,220.57,103150207,1.388799786567688,-0.22742384672164917,121.71885681152344,-0.03266336768865585
2256046.486,0,0,634012685,220.57,103150207,1.4465842247009277,-0.2984790802001953,121.46156311035156,-0.03659166395664215
2256146.486,0,0,634012671,220.58,103150261,1.4411604404449463,-0.3494247794151306,121.08411407470703,-0.054495569318532944
2256246.486,0,0,634012671,220.58,103150261,1.5015068054199219,-0.310375839471817,120.67058563232422,-0.0620637871325016
2256346.486,0,0,634012656,220.59,103150319,1.62227201461792,-0.3151295781135559,120.32478332519531,-0.056349802762269974
2256446.486,0,0,634012656,220.59,103150319,1.7094216346740723,-0.3259802460670471,119.96756744384766,-0.04895799234509468
2256546.486,0,0,634012641,220.59,103150383,1.8056626319885254,-0.2773735523223877,119.65889739990234,-0.04253850132226944
2256646.486,0,0,634012641,220.59,103150383,1.8916999101638794,-0.30288976430892944,119.39956665039062,-0.03711055964231491
2256746.486,0,0,634012625,220.59,103150452,2.013474225997925,-0.2704886794090271,119.15628051757812,-0.03533647954463959
2256846.486,0,0,634012625,220.59,103150452,2.144711971282959,-0.24389377236366272,118.90227508544922,-0.033192962408065796
2256946.486,0,0,634012607,220.59,103150528,2.202298402786255,-0.2595526874065399,118.63707733154297,-0.030832989141345024
2257046.486,0,0,634012607,220.59,103150528,2.3349108695983887,-0.29987114667892456,118.41938018798828,-0.02931586652994156
2257146.486,0,0,634012588,220.6,103150607,2.377991199493408,-0.2657025456428528,118.22835540771484,-0.03006535768508911
2257246.486,0,0,634012588,220.6,103150607,2.4179227352142334,-0.2648271322250366,118.01683807373047,-0.03067215532064438
2257346.486,0,0,634012570,220.61,103150692,2.4591026306152344,-0.22666120529174805,117.83586883544922,-0.028645548969507217
2257446.486,0,0,634012570,220.61,103150692,2.401069164276123,-0.24590614438056946,117.66370391845703,-0.028294991701841354
2257546.486,0,0,634012550,220.6,103150783,2.324094772338867,-0.2696676254272461,117.45906066894531,-0.03054528497159481
2257646.486,0,0,634012550,220.6,103150783,2.3570334911346436,-0.2551988363265991,117.27428436279297,-0.030906539410352707
2257746.486,0,0,634012529,220.61,103150876,2.2215394973754883,-0.2045564502477646,117.0351791381836,-0.03240244835615158
2257846.486,0,0,634012529,220.61,103150876,2.225475549697876,-0.32101351022720337,116.83961486816406,-0.03144168481230736
2257946.486,0,0,634012509,220.61,103150974,2.0556488037109375,-0.3035562038421631,116.635009765625,-0.033286068588495255
2258046.486,0,0,634012509,220.61,103150974,1.8435782194137573,-0.3170010447502136,116.45720672607422,-0.03474126011133194
2258146.486,0,0,634012488,220.61,103151072,1.7484370470046997,-0.2718328535556793,116.25711059570312,-0.034173790365457535
2258246.486,0,0,634012488,220.61,103151072,1.7477339506149292,-0.2871943712234497,116.05695343017578,-0.03171468898653984
2258346.486,0,0,634012466,220.6,103151170,1.6542620658874512,-0.2426949441432953,115.87166595458984,-0.028989549726247787
2258446.486,0,0,634012466,220.6,103151170,1.7009507417678833,-0.32039499282836914,115.71249389648438,-0.03030015155673027
2258546.486,0,0,634012446,220.57,103151271,1.5396243333816528,-0.31439828872680664,115.49301147460938,-0.033853836357593536
2258646.486,0,0,634012446,220.57,103151271,1.5628310441970825,-0.2727673649787903,115.30229949951172,-0.02949613332748413
2258746.486,0,0,634012425,220.57,103151370,1.516448974609375,-0.2543591260910034,115.17913818359375,-0.024426192045211792
2258846.486,0,0,634012425,220.57,103151370,1.5428550243377686,-0.33200711011886597,115.02222442626953,-0.02102598547935486
2258946.486,0,0,634012406,220.59,103151467,1.5009667873382568,-0.3092212677001953,114.83560943603516,-0.024005502462387085
2259046.486,0,0,634012406,220.59,103151467,1.5604987144470215,-0.3344675302505493,114.63269805908203,-0.0305918101221323
2259146.486,0,0,634012387,220.59,103151566,1.5130451917648315,-0.35497212409973145,114.37408447265625,-0.034598879516124725
2259246.486,0,0,634012387,220.59,103151566,1.4527493715286255,-0.35392770171165466,114.14579772949219,-0.030137497931718826
2259346.486,0,0,634012368,220.62,103151664,1.5486778020858765,-0.3228715658187866,114.00103759765625,-0.023508604615926743
2259446.486,0,0,634012368,220.62,103151664,1.528205394744873,-0.3328375816345215,113.88785552978516,-0.020674806088209152
2259546.486,0,0,634012350,220.65,103151761,1.5974555015563965,-0.23267006874084473,113.8150405883789,-0.016901995986700058
2259646.486,0,0,634012350,220.65,103151761,1.5932822227478027,-0.35668763518333435,113.72764587402344,-0.014995645731687546
2259746.486,0,0,634012330,220.64,103151860,1.508622646331787,-0.2797064781188965,113.5718994140625,-0.02030709944665432
2259846.486,0,0,634012330,220.64,103151860,1.5137860774993896,-0.34236177802085876,113.43980407714844,-0.02405194379389286
2259946.486,0,0,634012311,220.63,103151960,1.4226890802383423,-0.39248740673065186,113.25994873046875,-0.028236515820026398
2260046.486,0,0,634012311,220.63,103151960,1.4386738538742065,-0.42329809069633484,113.15343475341797,-0.02242482453584671
2260146.486,0,0,634012293,220.63,103152059,1.5088744163513184,-0.4231885075569153,113.08485412597656,-0.016011947765946388
2260246.486,0,0,634012293,220.63,103152059,1.551334023475647,-0.27993178367614746,112.96561431884766,-0.018720734864473343
2260346.486,0,0,634012275,220.65,103152156,1.565352439880371,-0.25361621379852295,112.8531494140625,-0.018010921776294708
2260446.486,0,0,634012275,220.65,103152156,1.5939990282058716,-0.2019776701927185,112.7861328125,-0.013868603855371475
2260546.486,0,0,634012258,220.67,103152255,1.6821229457855225,-0.171378493309021,112.67241668701172,-0.01218371745198965
2260646.486,0,0,634012258,220.67,103152255,1.5962042808532715,-0.21393342316150665,112.46631622314453,-0.020047305151820183
2260746.486,0,0,634012240,220.69,103152353,1.6799933910369873,-0.18583616614341736,112.26744079589844,-0.030014703050255775
2260846.486,0,0,634012240,220.69,103152353,1.6770143508911133,-0.343210905790329,111.99781799316406,-0.04137639328837395
2260946.486,0,0,634012222,220.7,103152452,1.7415058612823486,-0.3708246648311615,111.60865020751953,-0.05585107207298279
2261046.486,0,0,634012222,220.7,103152452,1.7885470390319824,-0.4468536972999573,111.25506591796875,-0.06244589388370514
2261146.486,0,0,634012206,220.71,103152552,1.7360528707504272,-0.4712960124015808,110.83373260498047,-0.06698998808860779
2261246.486,0,0,634012206,220.71,103152552,1.7512016296386719,-0.4521934986114502,110.37821960449219,-0.07212622463703156
2261346.486,0,0,634012190,220.74,103152653,1.6524394750595093,-0.4309023320674896,109.9771957397461,-0.07226553559303284
2261446.486,0,0,634012190,220.74,103152653,1.6522153615951538,-0.4452037215232849,109.52328491210938,-0.07164335995912552
2261546.486,0,0,634012173,220.76,103152753,1.6962227821350098,-0.4127280116081238,109.11400604248047,-0.07109048217535019
2261646.486,0,0,634012173,220.76,103152753,1.6704105138778687,-0.41694656014442444,108.6845474243164,-0.06902781873941422
2261746.486,0,0,634012158,220.77,103152855,1.6754385232925415,-0.40625232458114624,108.27462005615234,-0.07022176682949066
2261846.486,0,0,634012158,220.77,103152855,1.665278673171997,-0.500512421131134,107.8404769897461,-0.069794200360775
2261946.486,0,0,634012144,220.78,103152957,1.6390905380249023,-0.519839882850647,107.35289764404297,-0.07337822020053864
2262046.486,0,0,634012144,220.78,103152957,1.6678580045700073,-0.43454012274742126,106.91795349121094,-0.07445718348026276
2262146.486,0,0,634012129,220.77,103153060,1.5836771726608276,-0.43006935715675354,106.4380111694336,-0.07102695107460022
2262246.486,0,0,634012129,220.77,103153060,1.6330058574676514,-0.4227273166179657,106.03133392333984,-0.0667085126042366
2262346.486,0,0,634012115,220.77,103153163,1.5737638473510742,-0.46364203095436096,105.60233306884766,-0.06772606074810028
2262446.486,0,0,634012115,220.77,103153163,1.6067774295806885,-0.4310173988342285,105.18233489990234,-0.07183928042650223
2262546.486,0,0,634012102,220.77,103153267,1.6001383066177368,-0.41980838775634766,104.70861053466797,-0.06625082343816757
2262646.486,0,0,634012102,220.77,103153267,1.6552540063858032,-0.411594957113266,104.22602081298828,-0.06293078511953354
2262746.486,0,0,634012090,220.77,103153372,1.5869762897491455,-0.36827585101127625,103.78863525390625,-0.06478886306285858
2262846.486,0,0,634012090,220.77,103153372,1.5778957605361938,-0.3762141764163971,103.34044647216797,-0.06160114333033562
2262946.486,0,0,634012078,220.77,103153475,1.6201045513153076,-0.4640016257762909,102.9268798828125,-0.06296542286872864
2263046.486,0,0,634012078,220.77,103153475,1.6238377094268799,-0.48250624537467957,102.523193359375,-0.06712909042835236
2263146.486,0,0,634012068,220.79,103153580,1.6282879114151,-0.45165878534317017,102.02422332763672,-0.06661443412303925
2263246.486,0,0,634012068,220.79,103153580,1.6540776491165161,-0.430050790309906,101.58778381347656,-0.06437196582555771
2263346.486,0,0,634012058,220.81,103153684,1.6954355239868164,-0.4199855327606201,101.2056655883789,-0.0629899725317955
2263446.486,0,0,634012058,220.81,103153684,1.611480712890625,-0.4071374535560608,100.76293182373047,-0.06698746979236603
2263546.486,0,0,634012049,220.81,103153790,1.623203158378601,-0.43181484937667847,100.3272933959961,-0.06708070635795593
2263646.486,0,0,634012049,220.81,103153790,1.5781880617141724,-0.39155498147010803,99.90556335449219,-0.06393502652645111
2263746.486,0,0,634012040,220.82,103153895,1.6221708059310913,-0.4229879081249237,99.48600769042969,-0.06402302533388138
2263846.486,0,0,634012040,220.82,103153895,1.5977444648742676,-0.4495142698287964,99.0308837890625,-0.06634535640478134
2263946.486,0,0,634012031,220.82,103154001,1.6013619899749756,-0.39768117666244507,98.58901977539062,-0.06595858186483383
2264046.486,0,0,634012031,220.82,103154001,1.5871611833572388,-0.3353956341743469,98.17414855957031,-0.06022186204791069
2264146.486,0,0,634012023,220.82,103154108,1.6113362312316895,-0.340280681848526,97.80648040771484,-0.053828004747629166
2264246.486,0,0,634012023,220.82,103154108,1.6510531902313232,-0.3994525969028473,97.46932220458984,-0.05112306401133537
2264346.486,0,0,634012015,220.83,103154213,1.550447940826416,-0.3222940266132355,97.13900756835938,-0.04462484270334244
2264446.486,0,0,634012015,220.83,103154213,1.5719925165176392,-0.3210452198982239,96.84794616699219,-0.03983546793460846
2264546.486,0,0,634012009,220.82,103154319,1.5219535827636719,-0.3298909068107605,96.58204650878906,-0.031505461782217026
2264646.486,0,0,634012009,220.82,103154319,1.5566120147705078,-0.23292683064937592,96.41242980957031,-0.023250283673405647
2264746.486,0,0,634012001,220.82,103154424,1.5748294591903687,-0.28164565563201904,96.18760681152344,-0.020971450954675674
2264846.486,0,0,634012001,220.82,103154424,1.58480966091156,-0.22188615798950195,96.03399658203125,-0.01702839881181717
2264946.486,0,0,634011995,220.83,103154530,1.649759292602539,-0.20473912358283997,95.93653869628906,-0.00824367068707943
2265046.486,0,0,634011995,220.83,103154530,1.581653118133545,-0.2979421615600586,95.85868072509766,-0.005262932274490595
2265146.486,0,0,634011989,220.86,103154636,1.612767219543457,-0.2968195974826813,95.76699829101562,-0.006966723129153252
2265246.486,0,0,634011989,220.86,103154636,1.591817855834961,-0.16180869936943054,95.6913070678711,-0.003799348371103406
2265346.486,0,0,634011982,220.87,103154741,1.59893000125885,-0.2879248559474945,95.63837432861328,-0.003617306472733617
2265446.486,0,0,634011982,220.87,103154741,1.5394587516784668,-0.24624855816364288,95.55418395996094,-0.005730036646127701
2265546.486,0,0,634011976,220.88,103154847,1.589296817779541,-0.20605558156967163,95.54216003417969,-0.00022169994190335274
2265646.486,0,0,634011976,220.88,103154847,1.6126668453216553,-0.17507435381412506,95.52970123291016,0.0013933260925114155
2265746.486,0,0,634011969,220.87,103154952,1.5865254402160645,-0.29115721583366394,95.5029525756836,0.0030162713956087828
2265846.486,0,0,634011969,220.87,103154952,1.5935131311416626,-0.18140365183353424,95.47929382324219,0.00357604306191206
2265946.486,0,0,634011963,220.89,103155058,1.5956480503082275,-0.1821158528327942,95.46150970458984,0.0063541908748447895
2266046.486,0,0,634011963,220.89,103155058,1.6174392700195312,-0.13717740774154663,95.4225845336914,0.006460169330239296
2266146.486,0,0,634011956,220.89,103155163,1.5794192552566528,-0.3146541118621826,95.38367462158203,0.0034124290104955435
2266246.486,0,0,634011956,220.89,103155163,1.6000357866287231,-0.2305968552827835,95.33863830566406,0.0053259520791471004
2266346.486,0,0,634011948,220.9,103155267,1.6435661315917969,-0.12827619910240173,95.28731536865234,0.008355183526873589
2266446.486,0,0,634011948,220.9,103155267,1.5990222692489624,-0.20042359828948975,95.2854232788086,0.007729502394795418
2266546.486,0,0,634011943,220.93,103155373,1.6046388149261475,-0.20242857933044434,95.31521606445312,0.006884104572236538
2266646.486,0,0,634011943,220.93,103155373,1.6062309741973877,-0.21645689010620117,95.30711364746094,0.006133588962256908
2266746.486,0,0,634011938,220.98,103155474,1.572439432144165,-0.195972740650177,95.30419921875,0.003712163306772709
2266846.486,0,0,634011938,220.98,103155474,1.6016844511032104,-0.2515670657157898,95.30781555175781,0.0037025930359959602
2266946.486,0,0,634011930,220.98,103155579,1.590780258178711,-0.20041660964488983,95.28763580322266,0.004617917817085981
2267046.486,0,0,634011930,220.98,103155579,1.6237717866897583,-0.16802796721458435,95.26773834228516,0.004259335342794657
2267146.486,0,0,634011922,220.95,103155686,1.5833945274353027,-0.20269343256950378,95.26797485351562,0.004195896442979574
2267246.486,0,0,634011922,220.95,103155686,1.6503733396530151,-0.2816503047943115,95.21900939941406,0.005565439350903034
2267346.486,0,0,634011915,220.95,103155790,1.5888035297393799,-0.23340864479541779,95.24723052978516,0.006553748156875372
2267446.486,0,0,634011915,220.95,103155790,1.6117124557495117,-0.20862722396850586,95.23277282714844,0.005185452289879322
2267546.486,0,0,634011908,220.95,103155895,1.6286029815673828,-0.16431862115859985,95.1991958618164,0.0021286027040332556
2267646.486,0,0,634011908,220.95,103155895,1.6158409118652344,-0.25659504532814026,95.20167541503906,-0.0013256572419777513
2267746.486,0,0,634011901,220.95,103156000,1.651738166809082,-0.28746360540390015,95.15747833251953,-0.00529199093580246
2267846.486,0,0,634011901,220.95,103156000,1.5909864902496338,-0.23757842183113098,95.08605194091797,-0.012064702808856964
2267946.486,0,0,634011894,220.95,103156105,1.629030466079712,-0.3396642506122589,94.90440368652344,-0.019081484526395798
2268046.486,0,0,634011894,220.95,103156105,1.566731333732605,-0.26534801721572876,94.75204467773438,-0.02290777489542961
2268146.486,0,0,634011888,220.98,103156210,1.6383742094039917,-0.30327004194259644,94.56901550292969,-0.023405741900205612
2268246.486,0,0,634011888,220.98,103156210,1.6713659763336182,-0.37757664918899536,94.30048370361328,-0.03079620935022831
2268346.486,0,0,634011882,220.99,103156315,1.5468000173568726,-0.30672135949134827,94.07223510742188,-0.03902995586395264
2268446.486,0,0,634011882,220.99,103156315,1.6536840200424194,-0.3234880864620209,93.8152084350586,-0.04075871407985687
2268546.486,0,0,634011876,221,103156421,1.522371530532837,-0.3715427815914154,93.46507263183594,-0.04603373631834984
2268646.486,0,0,634011876,221,103156421,1.649743676185608,-0.385242223739624,93.12116241455078,-0.050263307988643646
2268746.486,0,0,634011870,220.99,103156527,1.5844917297363281,-0.35372406244277954,92.81544494628906,-0.048201095312833786
2268846.486,0,0,634011870,220.99,103156527,1.6371005773544312,-0.4065167009830475,92.53316497802734,-0.047271423041820526
2268946.486,0,0,634011864,220.98,103156633,1.5979669094085693,-0.383558452129364,92.21559143066406,-0.050161298364400864
2269046.486,0,0,634011864,220.98,103156633,1.616155743598938,-0.4311234652996063,91.82183074951172,-0.05273520201444626
2269146.486,0,0,634011860,220.98,103156741,1.5804412364959717,-0.33306261897087097,91.46232604980469,-0.05279441922903061
2269246.486,0,0,634011860,220.98,103156741,1.6743643283843994,-0.3615250289440155,91.12970733642578,-0.0496646873652935
2269346.486,0,0,634011856,220.99,103156846,1.6478643417358398,-0.4436596632003784,90.79513549804688,-0.051281169056892395
2269446.486,0,0,634011856,220.99,103156846,1.623702883720398,-0.4258423447608948,90.39376831054688,-0.05629626289010048
2269546.486,0,0,634011853,220.97,103156953,1.528207778930664,-0.38297268748283386,90.007080078125,-0.058123879134655
2269646.486,0,0,634011853,220.97,103156953,1.6046621799468994,-0.36095136404037476,89.61693572998047,-0.0555964931845665
2269746.486,0,0,634011848,220.94,103157061,1.6002583503723145,-0.4160534739494324,89.27169036865234,-0.05362348258495331
2269846.486,0,0,634011848,220.94,103157061,1.6624504327774048,-0.4171736538410187,88.90902709960938,-0.055983979254961014
2269946.486,0,0,634011843,220.9,103157170,1.5883127450942993,-0.4422192871570587,88.48860931396484,-0.05883316323161125
2270046.486,0,0,634011843,220.9,103157170,1.6244943141937256,-0.4167948067188263,88.08560943603516,-0.06120360642671585
2270146.486,0,0,634011840,220.88,103157278,1.5876175165176392,-0.3563326597213745,87.73147583007812,-0.061167165637016296
2270246.486,0,0,634011840,220.88,103157278,1.5561516284942627,-0.3603609502315521,87.33875274658203,-0.05905935913324356
2270346.486,0,0,634011839,220.89,103157385,1.5849885940551758,-0.4586799740791321,86.94100952148438,-0.06027313321828842
2270446.486,0,0,634011839,220.89,103157385,1.6914145946502686,-0.4187539517879486,86.52046966552734,-0.06085573136806488
2270546.486,0,0,634011839,220.91,103157491,1.5617142915725708,-0.4088296592235565,86.06543731689453,-0.06583604216575623
2270646.486,0,0,634011839,220.91,103157491,1.584349513053894,-0.43911322951316833,85.66340637207031,-0.06589842587709427
2270746.486,0,0,634011839,220.91,103157597,1.5489953756332397,-0.42676791548728943,85.24893188476562,-0.06447099149227142
2270846.486,0,0,634011839,220.91,103157597,1.6343992948532104,-0.42898115515708923,84.8341293334961,-0.061469413340091705
2270946.486,0,0,634011839,220.92,103157706,1.5609352588653564,-0.43878766894340515,84.42052459716797,-0.06493780016899109
2271046.486,0,0,634011839,220.92,103157706,1.5722867250442505,-0.39605289697647095,83.9990005493164,-0.06697572767734528
2271146.486,0,0,634011841,220.92,103157813,1.6276665925979614,-0.36602237820625305,83.5961685180664,-0.06348376721143723
2271246.486,0,0,634011841,220.92,103157813,1.6409341096878052,-0.397992342710495,83.13836669921875,-0.06604748964309692
2271346.486,0,0,634011842,220.92,103157919,1.6297664642333984,-0.39039140939712524,82.70484924316406,-0.0655907392501831
2271446.486,0,0,634011842,220.92,103157919,1.5927504301071167,-0.40989869832992554,82.3039321899414,-0.05993298441171646
2271546.486,0,0,634011844,220.92,103158026,1.6111555099487305,-0.3508307933807373,81.93367767333984,-0.05160244554281235
2271646.486,0,0,634011844,220.92,103158026,1.5721724033355713,-0.3496531844139099,81.56303405761719,-0.05064862594008446
2271746.486,0,0,634011846,220.93,103158132,1.5757133960723877,-0.3149062693119049,81.2469711303711,-0.045202989131212234
2271846.486,0,0,634011846,220.93,103158132,1.637743592262268,-0.3309665322303772,81.01582336425781,-0.037291597574949265
2271946.486,0,0,634011849,220.93,103158238,1.5508488416671753,-0.2846442759037018,80.79965209960938,-0.03343529254198074
2272046.486,0,0,634011849,220.93,103158238,1.6162745952606201,-0.29276126623153687,80.5868911743164,-0.030555622652173042
2272146.486,0,0,634011853,220.93,103158346,1.528632402420044,-0.2977711856365204,80.37218475341797,-0.025678135454654694
2272246.486,0,0,634011853,220.93,103158346,1.6297876834869385,-0.28367936611175537,80.1718978881836,-0.020929483696818352
2272346.486,0,0,634011855,220.91,103158453,1.5917707681655884,-0.21804583072662354,80.01417541503906,-0.015578540042042732
2272446.486,0,0,634011855,220.91,103158453,1.5916907787322998,-0.3043438494205475,79.90796661376953,-0.011754213832318783
2272546.486,0,0,634011859,220.9,103158559,1.627201795578003,-0.26814597845077515,79.75360870361328,-0.013802515342831612
2272646.486,0,0,634011859,220.9,103158559,1.5497932434082031,-0.2783048450946808,79.59516906738281,-0.01627635583281517
2272746.486,0,0,634011862,220.91,103158665,1.6312642097473145,-0.33545687794685364,79.504150390625,-0.01270439475774765
2272846.486,0,0,634011862,220.91,103158665,1.6474617719650269,-0.2523452341556549,79.39854431152344,-0.010744495317339897
2272946.486,0,0,634011867,220.91,103158772,1.5647646188735962,-0.26726192235946655,79.28945922851562,-0.012420590035617352
2273046.486,0,0,634011867,220.91,103158772,1.6530367136001587,-0.19646796584129333,79.20530700683594,-0.010457189753651619
2273146.486,0,0,634011870,220.91,103158877,1.5628796815872192,-0.25707578659057617,79.04878234863281,-0.008491696789860725
2273246.486,0,0,634011870,220.91,103158877,1.6112321615219116,-0.23062236607074738,78.90852355957031,-0.010057679377496243
2273346.486,0,0,634011874,220.91,103158983,1.5319640636444092,-0.2283547967672348,78.83019256591797,-0.010173782706260681
2273446.486,0,0,634011874,220.91,103158983,1.6385266780853271,-0.19437015056610107,78.72408294677734,-0.008037453517317772
2273546.486,0,0,634011877,220.91,103159089,1.573488712310791,-0.2931971549987793,78.66085052490234,-0.008252445608377457
2273646.486,0,0,634011877,220.91,103159089,1.5997031927108765,-0.2118142694234848,78.55457305908203,-0.010004488751292229
2273746.486,0,0,634011881,220.89,103159194,1.5756601095199585,-0.22050519287586212,78.51557159423828,-0.0062426128424704075
2273846.486,0,0,634011881,220.89,103159194,1.5552785396575928,-0.2859050929546356,78.42961883544922,-0.0062635536305606365
2273946.486,0,0,634011885,220.9,103159300,1.5977098941802979,-0.24002787470817566,78.33222961425781,-0.005550534464418888
2274046.486,0,0,634011885,220.9,103159300,1.6105751991271973,-0.19350016117095947,78.30882263183594,-0.0038476651534438133
2274146.486,0,0,634011889,220.9,103159406,1.5826979875564575,-0.25247329473495483,78.24951171875,-0.004471810534596443
2274246.486,0,0,634011889,220.9,103159406,1.595658540725708,-0.2403995394706726,78.17357635498047,-0.005537231452763081
2274346.486,0,0,634011892,220.89,103159512,1.5750813484191895,-0.25053080916404724,78.10751342773438,-0.0029949075542390347
2274446.486,0,0,634011892,220.89,103159512,1.5787335634231567,-0.23304027318954468,78.06262969970703,-0.0014052530750632286
2274546.486,0,0,634011897,220.88,103159617,1.5978643894195557,-0.20994305610656738,77.95291137695312,-0.001419166219420731
2274646.486,0,0,634011897,220.88,103159617,1.5981462001800537,-0.2269972413778305,77.91120910644531,-0.001688327407464385
2274746.486,0,0,634011900,220.89,103159723,1.6190617084503174,-0.27581024169921875,77.88264465332031,-0.00010792324610520154
2274846.486,0,0,634011900,220.89,103159723,1.5431369543075562,-0.1959853619337082,77.82402038574219,-0.003555580507963896
2274946.486,0,0,634011904,220.88,103159828,1.5850486755371094,-0.2663988471031189,77.75851440429688,-0.00023078406229615211
2275046.486,0,0,634011904,220.88,103159828,1.6329272985458374,-0.223557248711586,77.7086181640625,-0.0016554989852011204
2275146.486,0,0,634011908,220.88,103159934,1.6114438772201538,-0.22690732777118683,77.67123413085938,-0.002839659573510289
2275246.486,0,0,634011908,220.88,103159934,1.5598348379135132,-0.17235976457595825,77.60565185546875,-0.003528060857206583
2275346.486,0,0,634011913,220.9,103160040,1.6038434505462646,-0.29405006766319275,77.59882354736328,-0.003262505866587162
2275446.486,0,0,634011913,220.9,103160040,1.567937970161438,-0.23488911986351013,77.58152770996094,-0.002756105735898018
2275546.486,0,0,634011916,220.89,103160146,1.583029866218567,-0.2232881784439087,77.53876495361328,-0.0007051643915474415
2275646.486,0,0,634011916,220.89,103160146,1.6448194980621338,-0.22376033663749695,77.51547241210938,-0.0012520516756922007
2275746.486,0,0,634011920,220.9,103160251,1.5960193872451782,-0.2583572566509247,77.54302978515625,-0.0014326082309708
2275846.486,0,0,634011920,220.9,103160251,1.5878570079803467,-0.21162965893745422,77.55072021484375,0.0009053549147211015
2275946.486,0,0,634011924,220.89,103160357,1.627181887626648,-0.20630404353141785,77.48628997802734,0.00026177510153502226
2276046.486,0,0,634011924,220.89,103160357,1.600102424621582,-0.21866045892238617,77.41203308105469,-0.0024525453336536884
2276146.486,0,0,634011928,220.89,103160463,1.5778940916061401,-0.20624059438705444,77.38843536376953,-0.0029234946705400944
2276246.486,0,0,634011928,220.89,103160463,1.581442952156067,-0.251518577337265,77.3488998413086,-0.0013059594202786684
2276346.486,0,0,634011933,220.9,103160567,1.6274685859680176,-0.24728281795978546,77.28285217285156,-0.003549042623490095
2276446.486,0,0,634011933,220.9,103160567,1.6286826133728027,-0.174937441945076,77.24119567871094,-0.004455038346350193
2276546.486,0,0,634011937,220.9,103160673,1.572983741760254,-0.2289927899837494,77.18185424804688,-0.0026426459662616253
2276646.486,0,0,634011937,220.9,103160673,1.6838947534561157,-0.28291794657707214,77.16387939453125,-0.00003985432704212144
2276746.486,0,0,634011941,220.9,103160778,1.573026418685913,-0.2265806496143341,77.1048583984375,-0.0021823171991854906
2276846.486,0,0,634011941,220.9,103160778,1.6621769666671753,-0.20239803194999695,77.082763671875,-0.0008009804878383875
2276946.486,0,0,634011945,220.9,103160884,1.5730829238891602,-0.24080777168273926,76.97581481933594,-0.0027741831727325916
2277046.486,0,0,634011945,220.9,103160884,1.5845333337783813,-0.24334271252155304,76.96558380126953,-0.0019334157695993781
2277146.486,0,0,634011949,220.9,103160989,1.6197344064712524,-0.20578138530254364,76.95755767822266,0.00013709756603930146
2277246.486,0,0,634011949,220.9,103160989,1.644148588180542,-0.24143213033676147,76.94491577148438,-0.00137955357786268
2277346.486,0,0,634011953,220.9,103161093,1.6429219245910645,-0.18083153665065765,76.86930084228516,-0.001683040987700224
2277446.486,0,0,634011953,220.9,103161093,1.6325912475585938,-0.30214110016822815,76.85991668701172,-0.003039367962628603
2277546.486,0,0,634011957,220.9,103161199,1.6113022565841675,-0.22181391716003418,76.80504608154297,-0.0023217196576297283
2277646.486,0,0,634011957,220.9,103161199,1.614397406578064,-0.21384680271148682,76.74779510498047,-0.0032071154564619064
2277746.486,0,0,634011961,220.9,103161304,1.6348954439163208,-0.2626959979534149,76.66433715820312,-0.00174404785502702
2277846.486,0,0,634011961,220.9,103161304,1.6293275356292725,-0.2989521920681,76.62633514404297,-0.0016822153702378273
2277946.486,0,0,634011965,220.9,103161409,1.666661262512207,-0.15827107429504395,76.6142349243164,-0.0016119531355798244
2278046.486,0,0,634011965,220.9,103161409,1.5974147319793701,-0.2524714767932892,76.58592224121094,-0.0016619381494820118
2278146.486,0,0,634011969,220.9,103161514,1.6188585758209229,-0.2513321042060852,76.55577850341797,-0.002045737113803625
2278246.486,0,0,634011969,220.9,103161514,1.6306300163269043,-0.23990100622177124,76.49581146240234,-0.005246409215033054
2278346.486,0,0,634011974,220.9,103161620,1.6799442768096924,-0.2611154615879059,76.43744659423828,-0.007342074997723103
2278446.486,0,0,634011974,220.9,103161620,1.5776821374893188,-0.25113797187805176,76.35049438476562,-0.007426431868225336
2278546.486,0,0,634011977,220.9,103161725,1.4318227767944336,-0.2580844759941101,76.23550415039062,-0.01209378894418478
2278646.486,0,0,634011977,220.9,103161725,1.119184970855713,-0.24039094150066376,76.14756774902344,-0.015112834982573986
2278746.486,0,0,634011982,220.88,103161827,1.0194734334945679,-0.2556512951850891,76.08649444580078,-0.014895319007337093
2278846.486,0,0,634011982,220.88,103161827,0.7060592770576477,-0.2539045810699463,76.03572082519531,-0.017744453623890877
2278946.486,0,0,634011987,220.89,103161924,0.651302695274353,-0.24539422988891602,75.96245574951172,-0.017439905554056168
2279046.486,0,0,634011987,220.89,103161924,0.4502168297767639,-0.23747731745243073,75.92332458496094,-0.017813533544540405
2279146.486,0,0,634011991,220.88,103162017,0.3747347593307495,-0.22384005784988403,75.83037567138672,-0.01849476806819439
2279246.486,0,0,634011991,220.88,103162017,0.25573667883872986,-0.28671765327453613,75.77173614501953,-0.01904173567891121
2279346.486,0,0,634011994,220.87,103162102,0.219746932387352,-0.2305103838443756,75.6960220336914,-0.01901232823729515
2279446.486,0,0,634011994,220.87,103162102,0.21799509227275848,-0.19911432266235352,75.63744354248047,-0.017224367707967758
2279546.486,0,0,634011998,220.88,103162181,0.22959396243095398,-0.25428009033203125,75.54422760009766,-0.01959545910358429
2279646.486,0,0,634011998,220.88,103162181,0.26220017671585083,-0.21274368464946747,75.46831512451172,-0.0179318655282259
2279746.486,0,0,634012002,220.87,103162255,0.2739409804344177,-0.20760862529277802,75.4018783569336,-0.018859390169382095
2279846.486,0,0,634012002,220.87,103162255,0.28248023986816406,-0.2501767575740814,75.31085968017578,-0.020311150699853897
2279946.486,0,0,634012006,220.86,103162323,0.1975257396697998,-0.1792060285806656,75.24512481689453,-0.02085873670876026
2280046.486,0,0,634012006,220.86,103162323,0.19763463735580444,-0.22753983736038208,75.17453002929688,-0.020971175283193588
2280146.486,0,0,634012009,220.87,103162384,0.13720831274986267,-0.23011107742786407,75.12604522705078,-0.023024311289191246
2280246.486,0,0,634012009,220.87,103162384,0.08827060461044312,-0.2315865457057953,74.98379516601562,-0.025142883881926537
2280346.486,0,0,634012012,220.86,103162441,0.05538574606180191,-0.23059524595737457,74.88672637939453,-0.028384726494550705
2280446.486,0,0,634012012,220.86,103162441,-0.04540636017918587,-0.22761979699134827,74.74952697753906,-0.03194598853588104
2280546.486,0,0,634012014,220.85,103162491,-0.078062504529953,-0.22834070026874542,74.57466125488281,-0.03318779915571213
2280646.486,0,0,634012014,220.85,103162491,-0.17842480540275574,-0.21276234090328217,74.42173767089844,-0.03241725265979767
2280746.486,0,0,634012018,220.86,103162536,-0.1871381402015686,-0.2392868846654892,74.28050231933594,-0.03212563693523407
2280846.486,0,0,634012018,220.86,103162536,-0.2968958020210266,-0.21150995790958405,74.1635513305664,-0.03291420638561249
2280946.486,0,0,634012020,220.84,103162578,-0.3066715598106384,-0.21713528037071228,74.04499816894531,-0.03013308160007
2281046.486,0,0,634012020,220.84,103162578,-0.31916117668151855,-0.20075158774852753,73.9443588256836,-0.027590541169047356
2281146.486,0,0,634012023,220.85,103162615,-0.4973534643650055,-0.2466311901807785,73.8086166381836,-0.03350028023123741
2281246.486,0,0,634012023,220.85,103162615,-0.5231338143348694,-0.23728103935718536,73.56629943847656,-0.05057423561811447
2281346.486,0,0,634012024,220.82,103162649,-0.9575222730636597,-0.22524204850196838,73.3348388671875,-0.05360442027449608
2281446.486,0,0,634012024,220.82,103162649,-0.8072513937950134,-0.24446626007556915,73.07592010498047,-0.05057942122220993
2281546.486,0,0,634012026,220.82,103162677,-1.407975196838379,-0.34224462509155273,72.64834594726562,-0.07875586301088333
2281646.486,0,0,634012026,220.82,103162677,-1.7330927848815918,-0.319603830575943,71.9686508178711,-0.11956427991390228
2281746.486,0,0,634012027,220.8,103162695,-1.887340784072876,-0.14029081165790558,71.34329986572266,-0.11431024223566055
2281846.486,0,0,634012027,220.8,103162695,-1.4752063751220703,-0.15724574029445648,70.83252716064453,-0.09277594089508057
2281946.486,0,0,634012028,220.8,103162705,-1.179282546043396,-0.3191490173339844,70.13623046875,-0.11783651262521744
2282046.486,0,0,634012028,220.8,103162705,-1.1335697174072266,-0.1352003812789917,69.31301879882812,-0.14546090364456177
2282146.486,0,0,634012027,220.79,103162706,-0.6817984580993652,-0.0988418459892273,68.60185241699219,-0.12563097476959229
2282246.486,0,0,634012027,220.79,103162706,-0.1635085791349411,-0.04544958844780922,68.1029281616211,-0.0859832838177681
2282346.486,0,0,634012026,220.76,103162705,0.45704540610313416,-0.06123674288392067,67.75037384033203,-0.060241807252168655
2282446.486,0,0,634012026,220.76,103162705,0.505215048789978,-0.031213656067848206,67.48027801513672,-0.04421130567789078
2282546.486,0,0,634012026,220.73,103162706,0.4326772689819336,-0.1742604523897171,67.37786102294922,-0.026161666959524155
2282646.486,0,0,634012026,220.73,103162706,0.1600348800420761,-0.2575541138648987,67.32879638671875,-0.0229498203843832
2282746.486,0,0,634012026,220.73,103162706,-0.20975574851036072,-0.23390136659145355,67.2152328491211,-0.032991886138916016
2282846.486,0,0,634012026,220.73,103162706,-0.3823031485080719,-0.26924628019332886,67.121826171875,-0.034881845116615295
2282946.486,0,0,634012025,220.75,103162705,-0.33282679319381714,-0.20552772283554077,67.00094604492188,-0.03881536424160004
2283046.486,0,0,634012025,220.75,103162705,-0.2982514202594757,-0.12350998818874359,66.85391998291016,-0.03173480182886124
2283146.486,0,0,634012023,220.74,103162703,0.21894142031669617,-0.1105683222413063,66.69014739990234,-0.022753436118364334
2283246.486,0,0,634012023,220.74,103162703,0.4445554316043854,-0.19458062946796417,66.49253845214844,-0.029501425102353096
2283346.486,0,0,634012023,220.72,103162705,0.6928539276123047,-0.4265092611312866,66.04637908935547,-0.06297910958528519
2283446.486,0,0,634012023,220.72,103162705,0.8891189098358154,-0.45078200101852417,64.91236877441406,-0.18512579798698425
2283546.486,0,0,634012024,220.71,103162708,0.39991462230682373,-0.30637621879577637,63.19161605834961,-0.3003757894039154
2283646.486,0,0,634012024,220.71,103162708,0.07251382619142532,-0.18416044116020203,61.4376220703125,-0.318371444940567
2283746.486,0,0,634012025,220.69,103162711,-0.03739188238978386,-0.18770402669906616,59.76938247680664,-0.3049834072589874
2283846.486,0,0,634012025,220.69,103162711,-0.026086464524269104,-0.16433683037757874,57.964874267578125,-0.3227086067199707
2283946.486,0,0,634012025,220.68,103162712,-0.11011100560426712,-0.10260225832462311,55.98574447631836,-0.3495342433452606
2284046.486,0,0,634012025,220.68,103162712,-0.027942854911088943,-0.12315045297145844,54.00257110595703,-0.35395348072052
2284146.486,0,0,634012026,220.68,103162713,0.057397905737161636,-0.15002189576625824,52.07522964477539,-0.34520816802978516
2284246.486,0,0,634012026,220.68,103162713,0.16637572646141052,-0.19143855571746826,50.200096130371094,-0.33932793140411377
2284346.486,0,0,634012026,220.67,103162714,0.17390300333499908,-0.187551349401474,48.345157623291016,-0.3329424262046814
2284446.486,0,0,634012026,220.67,103162714,0.1362881362438202,-0.2694699466228485,46.520259857177734,-0.3322710394859314
2284546.486,0,0,634012027,220.66,103162716,0.07408995181322098,-0.2314434051513672,44.65867614746094,-0.3393789529800415
2284646.486,0,0,634012027,220.66,103162716,-0.02713431604206562,-0.17248085141181946,42.74508285522461,-0.3444983959197998
2284746.486,0,0,634012027,220.66,103162717,-0.09203597903251648,-0.11589363217353821,40.91337585449219,-0.33463841676712036
2284846.486,0,0,634012027,220.66,103162717,-0.05212056636810303,-0.15686950087547302,39.162540435791016,-0.31400206685066223
2284946.486,0,0,634012026,220.65,103162717,0.017572717741131783,-0.21387633681297302,37.43470001220703,-0.306084007024765
2285046.486,0,0,634012026,220.65,103162717,0.09265850484371185,-0.1296052485704422,35.654727935791016,-0.3160608410835266
2285146.486,0,0,634012026,220.64,103162719,0.08835999667644501,-0.17166149616241455,33.85002136230469,-0.3242145776748657
2285246.486,0,0,634012026,220.64,103162719,0.12564143538475037,-0.20048868656158447,32.06788635253906,-0.32475918531417847
2285346.486,0,0,634012025,220.63,103162718,0.08520304411649704,-0.19473624229431152,30.216779708862305,-0.32391905784606934
2285446.486,0,0,634012025,220.63,103162718,0.0913451686501503,-0.17824405431747437,28.441383361816406,-0.31951701641082764
2285546.486,0,0,634012025,220.62,103162718,0.058223575353622437,-0.15303421020507812,26.701148986816406,-0.3150649666786194
2285646.486,0,0,634012025,220.62,103162718,0.070920929312706,-0.14255540072917938,24.911630630493164,-0.31517499685287476
2285746.486,0,0,634012024,220.62,103162717,-0.011578920297324657,-0.1513393670320511,23.138219833374023,-0.31742405891418457
2285846.486,0,0,634012024,220.62,103162717,-0.014415102079510689,-0.14986680448055267,21.456871032714844,-0.3039522171020508
2285946.486,0,0,634012022,220.61,103162717,-0.014704464934766293,-0.12783467769622803,19.942710876464844,-0.2774176299571991
2286046.486,0,0,634012022,220.61,103162717,0.08724391460418701,-0.11999683082103729,18.55915069580078,-0.2530107796192169
